"Time (s)","Linear Acceleration x (m/s^2)","Linear Acceleration y (m/s^2)","Linear Acceleration z (m/s^2)"
1.185318800E-2,0.000000000E0,0.000000000E0,0.000000000E0
1.685318800E-2,-7.780790329E-2,2.742624283E-2,1.315217018E-1
2.185318800E-2,-2.092041969E-1,4.820108414E-2,3.084087372E-1
2.685318800E-2,-3.193140030E-1,8.588743210E-2,5.020527840E-1
3.185318800E-2,-3.756818771E-1,6.333971024E-2,6.955814362E-1
3.685318800E-2,-3.252654076E-1,1.094951630E-1,8.818063736E-1
4.185318800E-2,-3.347425461E-1,1.158680916E-1,1.163869381E0
4.685318800E-2,-3.249688148E-1,6.815862656E-2,1.549506187E0
5.185318800E-2,-2.258949280E-1,-4.939126968E-2,1.987523079E0
5.685318800E-2,-2.206516266E-2,-1.216778755E-1,2.388366699E0
6.185318800E-2,1.592183113E-1,-2.750635147E-1,2.639464378E0
6.685318800E-2,3.453540802E-1,-4.063754082E-1,2.833780289E0
7.185318800E-2,5.227582455E-1,-4.927520752E-1,2.957418442E0
7.685318800E-2,6.923942566E-1,-5.386505127E-1,2.962416649E0
8.185318800E-2,7.806863785E-1,-5.904865265E-1,2.739020348E0
8.685318800E-2,7.841966152E-1,-5.677213669E-1,2.376363754E0
9.185318800E-2,7.111153603E-1,-5.383009911E-1,1.969843864E0
9.685318800E-2,5.803942680E-1,-4.506235123E-1,1.515136719E0
1.018531880E-1,4.041728973E-1,-3.235974312E-1,1.045061111E0
1.068531880E-1,1.674647331E-1,-2.048707008E-1,5.351238251E-1
1.118531880E-1,-9.261274338E-2,-1.037216187E-1,8.282852173E-2
1.168531880E-1,-3.280265331E-1,-1.513385773E-2,-3.387145996E-1
1.218531880E-1,-4.779579639E-1,7.309913635E-2,-6.518697739E-1
1.268531880E-1,-6.337573528E-1,1.342859268E-1,-8.111858368E-1
1.318531880E-1,-7.055063248E-1,1.286802292E-1,-8.424806595E-1
1.368531880E-1,-6.609086990E-1,5.960035324E-2,-7.553901672E-1
1.418531880E-1,-5.506594181E-1,-6.822872162E-2,-5.728292465E-1
1.468531880E-1,-4.650328159E-1,-2.393727303E-1,-2.850351334E-1
1.518531880E-1,-3.491554260E-1,-4.072523117E-1,3.683567047E-2
1.568531880E-1,-2.046391964E-1,-5.590734482E-1,3.287506104E-1
1.618531880E-1,-7.350564003E-2,-6.922574043E-1,5.498065948E-1
1.668531880E-1,1.320362091E-3,-8.444666862E-1,7.006216049E-1
1.718531880E-1,4.407215118E-2,-9.358382225E-1,8.248558044E-1
1.768531880E-1,1.410934925E-1,-1.039639235E0,8.601264954E-1
1.818531880E-1,2.483100891E-1,-1.126908541E0,8.321304321E-1
1.868531880E-1,3.477702141E-1,-1.208576441E0,6.607408524E-1
1.918531880E-1,4.847278595E-1,-1.293150425E0,4.363107681E-1
1.968531880E-1,5.534276962E-1,-1.278869629E0,2.126836777E-1
2.018531880E-1,6.620566845E-1,-1.270509958E0,-6.676769257E-2
2.068531880E-1,7.859261036E-1,-1.261417150E0,-3.764791489E-1
2.118531880E-1,9.314587116E-1,-1.244653225E0,-7.052345276E-1
2.168531880E-1,1.035868406E0,-1.171088457E0,-1.025802612E0
2.218531880E-1,1.078457952E0,-1.114544153E0,-1.371684074E0
2.268531880E-1,1.047284484E0,-1.071990252E0,-1.733371735E0
2.318531880E-1,1.003556252E0,-1.058299541E0,-2.099839211E0
2.368531880E-1,9.623379707E-1,-1.052639008E0,-2.419442177E0
2.418531880E-1,9.202626944E-1,-1.056228876E0,-2.704902172E0
2.468531880E-1,8.935149908E-1,-1.077357531E0,-2.908399105E0
2.518531880E-1,8.476684093E-1,-1.091371298E0,-3.062464714E0
2.568531880E-1,7.817260027E-1,-1.126576900E0,-3.189736843E0
2.618531880E-1,7.292330265E-1,-1.138118505E0,-3.266028881E0
2.668531880E-1,7.182588577E-1,-1.095848799E0,-3.251401901E0
2.718531880E-1,6.347674131E-1,-1.075394392E0,-3.134117603E0
2.768531880E-1,5.370227098E-1,-1.047059774E0,-2.945489407E0
2.818531880E-1,4.319300652E-1,-1.018234730E0,-2.654075146E0
2.868531880E-1,3.202531338E-1,-9.913218021E-1,-2.291290283E0
2.918531880E-1,2.454340458E-1,-9.645116329E-1,-1.922044277E0
2.968531880E-1,2.671308517E-1,-9.009349346E-1,-1.583632469E0
3.018531880E-1,3.069760799E-1,-8.672559261E-1,-1.236127853E0
3.068531880E-1,3.408827782E-1,-8.097982407E-1,-9.188156128E-1
3.118531880E-1,3.981981277E-1,-7.731208801E-1,-6.654281616E-1
3.168531880E-1,4.418073893E-1,-7.516877651E-1,-4.562816620E-1
3.218531880E-1,5.724861622E-1,-7.648425102E-1,-3.430328369E-1
3.268531880E-1,7.249281406E-1,-8.008234501E-1,-2.774429321E-1
3.318531880E-1,9.197641611E-1,-8.177592754E-1,-2.475681305E-1
3.368531880E-1,1.147580385E0,-8.597896099E-1,-2.868738174E-1
3.418531880E-1,1.260870814E0,-9.450011253E-1,-4.023275375E-1
3.468531880E-1,1.323722363E0,-9.209530354E-1,-5.784959793E-1
3.518531880E-1,1.403004646E0,-9.798402786E-1,-8.696269989E-1
3.568531880E-1,1.528568745E0,-9.582262039E-1,-1.046503067E0
3.618531880E-1,1.591794968E0,-8.657879829E-1,-1.224893570E0
3.668531880E-1,1.647877574E0,-7.900936604E-1,-1.480396271E0
3.718531880E-1,1.606933594E0,-7.122087479E-1,-1.783523560E0
3.768531880E-1,1.505044341E0,-6.567428112E-1,-2.151359558E0
3.818531880E-1,1.392230868E0,-5.873527527E-1,-2.522404671E0
3.868531880E-1,1.295565724E0,-5.109121799E-1,-2.812996387E0
3.918531880E-1,1.229973435E0,-4.245767593E-1,-3.036635399E0
3.968531880E-1,1.160403490E0,-3.226745129E-1,-3.197022438E0
4.018531880E-1,1.061960340E0,-2.328319550E-1,-3.298658848E0
4.068531880E-1,9.162917137E-1,-1.558170319E-1,-3.336118221E0
4.118531880E-1,7.793897390E-1,-6.321334839E-2,-3.314059258E0
4.168531880E-1,6.588726044E-1,2.506160736E-2,-3.243099689E0
4.218531880E-1,5.608820915E-1,8.673119545E-2,-3.162736893E0
4.268531880E-1,4.992245436E-1,1.067450047E-1,-3.074254036E0
4.318531880E-1,4.887771606E-1,1.101753712E-1,-2.993951321E0
4.368531880E-1,4.851887226E-1,9.926056862E-2,-2.902570248E0
4.418531880E-1,4.604393244E-1,9.023594856E-2,-2.790361881E0
4.468531880E-1,3.921051025E-1,9.712624550E-2,-2.618719578E0
4.518531880E-1,2.989330292E-1,8.627867699E-2,-2.412247181E0
4.568531880E-1,2.260589600E-1,8.218073845E-2,-2.184243679E0
4.618531880E-1,2.138094902E-1,7.826256752E-2,-1.977050304E0
4.668531880E-1,2.446452379E-1,6.069755554E-2,-1.800517559E0
4.718531880E-1,2.463676929E-1,7.392191887E-2,-1.605639458E0
4.768531880E-1,1.823579073E-1,1.091325283E-1,-1.455592632E0
4.818531880E-1,7.015454769E-2,1.614217758E-1,-1.337427616E0
4.868531880E-1,9.049057961E-3,2.340552807E-1,-1.251120567E0
4.918531880E-1,-3.960156441E-2,3.258802891E-1,-1.176262856E0
4.968531880E-1,-8.737576008E-2,3.715498447E-1,-1.070025444E0
5.018531880E-1,-9.064674377E-2,4.359712601E-1,-9.556608200E-1
5.068531880E-1,-1.102256775E-1,4.725985527E-1,-8.600625992E-1
5.118531880E-1,-1.589050293E-1,5.036425591E-1,-7.988386154E-1
5.168531880E-1,-1.798931360E-1,5.363464355E-1,-7.055568695E-1
5.218531880E-1,-2.030081749E-1,5.781433582E-1,-6.060075760E-1
5.268531880E-1,-2.077901363E-1,6.264822483E-1,-4.924840927E-1
5.318531880E-1,-1.959164143E-1,6.792495251E-1,-3.733358383E-1
5.368531880E-1,-2.230569124E-1,7.100913525E-1,-2.712821960E-1
5.418531880E-1,-2.472501993E-1,7.600548267E-1,-1.945552826E-1
5.468531880E-1,-2.456387281E-1,7.787272930E-1,-9.044933319E-2
5.518531880E-1,-2.256036997E-1,7.954339981E-1,5.004882812E-2
5.568531880E-1,-1.607656479E-1,8.161118031E-1,2.287349701E-1
5.618531880E-1,-8.126676083E-2,8.166782856E-1,4.057455063E-1
5.668531880E-1,5.003452301E-3,7.875504494E-1,5.356721878E-1
5.718531880E-1,9.811079502E-2,7.096648216E-1,5.951309204E-1
5.768531880E-1,1.847620010E-1,6.422464848E-1,5.980300903E-1
5.818531880E-1,2.225061655E-1,5.431270599E-1,5.529127121E-1
5.868531880E-1,1.995923519E-1,4.822375774E-1,4.812068939E-1
5.918531880E-1,1.327433586E-1,4.448401928E-1,4.480752945E-1
5.968531880E-1,5.430829525E-2,4.213724136E-1,4.446525574E-1
6.018531880E-1,5.369544029E-3,4.009351730E-1,3.841905594E-1
6.068531880E-1,-4.136157036E-2,4.190263748E-1,2.865810394E-1
6.118531880E-1,-6.297850609E-2,4.547472000E-1,2.030324936E-1
6.168531880E-1,-8.957803249E-2,5.231013298E-1,1.445760727E-1
6.218531880E-1,-8.828437328E-2,5.474324226E-1,4.836273193E-2
6.268531880E-1,-7.839208841E-2,5.437664986E-1,-8.319473267E-2
6.318531880E-1,-4.490584135E-2,5.007357597E-1,-2.438764572E-1
6.368531880E-1,2.288502455E-2,3.996281624E-1,-4.011402130E-1
6.418531880E-1,8.187270164E-2,3.328294754E-1,-5.025768280E-1
6.468531880E-1,9.967362881E-2,3.090915680E-1,-5.392045975E-1
6.518531880E-1,9.382176399E-2,3.262042999E-1,-5.144271851E-1
6.568531880E-1,7.228642702E-2,3.399648666E-1,-4.957780838E-1
6.618531880E-1,6.816452742E-2,3.881645203E-1,-3.999261856E-1
6.668531880E-1,1.011303663E-1,4.260053635E-1,-2.994346619E-1
6.718531880E-1,1.326609850E-1,4.575748444E-1,-2.147817612E-1
6.768531880E-1,1.347168684E-1,4.843354225E-1,-9.471988678E-2
6.818531880E-1,1.352869868E-1,5.197091103E-1,3.689765930E-3
6.868531880E-1,1.595725417E-1,5.449261665E-1,1.096582413E-1
6.918531880E-1,2.348838449E-1,5.349335670E-1,2.315053940E-1
6.968531880E-1,3.363185525E-1,5.097417831E-1,4.451675415E-1
7.018531880E-1,4.418857992E-1,4.742364883E-1,7.669630051E-1
7.068531880E-1,5.462011099E-1,4.332404137E-1,1.176837921E0
7.118531880E-1,6.106176972E-1,3.885028362E-1,1.638036728E0
7.168531880E-1,6.591357589E-1,3.498895168E-1,2.182349205E0
7.218531880E-1,7.370184064E-1,3.448886871E-1,2.777109146E0
7.268531880E-1,7.639690042E-1,3.394284248E-1,3.400187492E0
7.318531880E-1,8.160506487E-1,3.340375423E-1,3.994314194E0
7.368531880E-1,8.985081315E-1,2.880723476E-1,4.386805534E0
7.418531880E-1,9.707018733E-1,1.876442432E-1,4.558485031E0
7.468531880E-1,9.832507372E-1,6.901359558E-2,4.534839630E0
7.518531880E-1,9.583371878E-1,-5.538988113E-2,4.320904732E0
7.568531880E-1,8.868930936E-1,-1.728720665E-1,3.919366837E0
7.618531880E-1,8.117209077E-1,-2.250967026E-1,3.358068466E0
7.668531880E-1,7.441312671E-1,-2.235450745E-1,2.743182182E0
7.718531880E-1,6.751300097E-1,-1.846728325E-1,2.126007080E0
7.768531880E-1,6.454333067E-1,-1.383950710E-1,1.570629120E0
7.818531880E-1,6.485941410E-1,-1.143317223E-1,1.152595520E0
7.868531880E-1,6.699844003E-1,-8.430671692E-2,6.819381714E-1
7.918531880E-1,6.870407462E-1,-5.079555511E-2,2.710943222E-1
7.968531880E-1,6.718730927E-1,-5.035448074E-2,-1.584339142E-2
8.018531880E-1,6.383542418E-1,-4.149198532E-2,-2.583532333E-1
8.068531880E-1,6.173845530E-1,-3.749561310E-2,-4.484586716E-1
8.118531880E-1,5.778017044E-1,-4.297113419E-2,-4.831352234E-1
8.168531880E-1,5.076427460E-1,-7.905268669E-2,-5.344400406E-1
8.218531880E-1,4.274375439E-1,-1.361465454E-1,-4.827823639E-1
8.268531880E-1,3.841847181E-1,-1.790502071E-1,-4.128046036E-1
8.318531880E-1,3.545611501E-1,-2.343556881E-1,-3.813343048E-1
8.368531880E-1,3.243731260E-1,-2.329025269E-1,-2.520837784E-1
8.418531880E-1,3.352559209E-1,-2.473378181E-1,-1.041660309E-1
8.468531880E-1,3.833314180E-1,-2.614290714E-1,8.046150208E-2
8.518531880E-1,4.543023407E-1,-2.520096302E-1,2.424583435E-1
8.568531880E-1,5.031329393E-1,-2.892141342E-1,3.807315826E-1
8.618531880E-1,4.870688319E-1,-3.274972439E-1,5.282955170E-1
8.668531880E-1,4.555504322E-1,-3.834118843E-1,5.567569733E-1
8.718531880E-1,3.966029286E-1,-4.712836742E-1,4.385948181E-1
8.768531880E-1,3.321810365E-1,-5.142405033E-1,3.357505798E-1
8.818531880E-1,2.490028739E-1,-5.488405228E-1,1.108798981E-1
8.868531880E-1,1.194967031E-1,-6.044945717E-1,-2.344837189E-1
8.918531880E-1,3.827083111E-2,-6.553094387E-1,-6.082124710E-1
8.968531880E-1,-4.318594933E-3,-6.636333466E-1,-9.651947021E-1
9.018531880E-1,-1.285858154E-1,-7.496082783E-1,-1.347864151E0
9.068531880E-1,-2.960391045E-1,-8.226668835E-1,-1.757224560E0
9.118531880E-1,-2.226612568E-1,-7.394940853E-1,-2.107550144E0
9.168531880E-1,-2.182737589E-1,-6.861195564E-1,-2.321780205E0
9.218531880E-1,-2.078629732E-1,-6.522345543E-1,-2.544266224E0
9.268531880E-1,-1.864061356E-1,-6.551575661E-1,-2.740898609E0
9.318531880E-1,-1.842815876E-1,-6.392958164E-1,-2.868784904E0
9.368531880E-1,-8.586418629E-2,-5.970780849E-1,-2.990948677E0
9.418531880E-1,3.342747688E-3,-5.600750446E-1,-3.096866131E0
9.468531880E-1,3.679299355E-2,-5.656406879E-1,-3.131542683E0
9.518531880E-1,6.611657143E-2,-5.491595268E-1,-3.102393627E0
9.568531880E-1,1.264369488E-1,-5.408694744E-1,-3.081459522E0
9.618531880E-1,1.793283224E-1,-5.028727055E-1,-3.040895939E0
9.668531880E-1,2.240451574E-1,-4.560244083E-1,-2.991790295E0
9.718531880E-1,2.719801664E-1,-3.894047737E-1,-2.938262939E0
9.768531880E-1,2.540746927E-1,-3.545570374E-1,-2.890923023E0
9.818531880E-1,1.032307148E-1,-3.134217262E-1,-2.874022484E0
9.868531880E-1,2.164772749E-1,-2.522706985E-1,-2.921372414E0
9.918531880E-1,3.132761717E-1,-1.553099155E-1,-3.357492447E0
9.968531880E-1,1.812756062E-1,-7.646656036E-2,-4.259790897E0
1.001853188E0,-1.851735115E-1,3.814554214E-2,-4.921509266E0
1.006853188E0,-4.828648567E-1,5.244374275E-2,-4.665150642E0
1.011853188E0,-5.855929852E-1,-3.128409386E-2,-4.009335041E0
1.016853188E0,-3.966407776E-1,-1.493210793E-1,-3.377404213E0
1.021853188E0,-1.719331741E-2,-2.407305241E-1,-2.787552834E0
1.026853188E0,2.560274601E-1,-1.633515358E-1,-2.153954029E0
1.031853188E0,2.297146320E-1,9.316229820E-2,-1.589613438E0
1.036853188E0,7.871580124E-2,3.886628151E-1,-1.070237637E0
1.041853188E0,-1.268227100E-1,5.779356956E-1,-6.414613724E-1
1.046853188E0,-3.579885960E-1,6.589469910E-1,-3.327445984E-1
1.051853188E0,-6.266539097E-1,6.369071007E-1,-3.392353058E-1
1.056853188E0,-8.419589996E-1,6.159567833E-1,-4.361200333E-1
1.061853188E0,-9.968078136E-1,6.680114269E-1,-4.360609055E-1
1.066853188E0,-1.061139107E0,7.399330139E-1,-4.150056839E-1
1.071853188E0,-1.005880833E0,7.522242069E-1,-4.629373550E-1
1.076853188E0,-8.700494766E-1,7.071144581E-1,-4.795761108E-1
1.081853188E0,-6.995337009E-1,6.756410599E-1,-5.082273483E-1
1.086853188E0,-4.605545998E-1,6.337153912E-1,-4.782218933E-1
1.091853188E0,-1.990804672E-1,6.361234188E-1,-4.872665405E-1
1.096853188E0,2.337241173E-2,6.464893818E-1,-5.270862579E-1
1.101853188E0,1.690878868E-1,6.686356068E-1,-5.412731171E-1
1.106853188E0,2.091517448E-1,6.785185337E-1,-5.425281525E-1
1.111853188E0,2.048380375E-1,6.927278042E-1,-5.143680573E-1
1.116853188E0,1.857373714E-1,6.879932880E-1,-4.737796783E-1
1.121853188E0,1.650421619E-1,6.724257469E-1,-4.123134613E-1
1.126853188E0,1.294715405E-1,6.919095516E-1,-3.363742828E-1
1.131853188E0,7.254981995E-2,7.136251926E-1,-2.675743103E-1
1.136853188E0,-6.215047836E-2,7.623338699E-1,-1.892900467E-1
1.141853188E0,-2.855510712E-1,8.104426861E-1,-1.284694672E-1
1.146853188E0,-4.805996418E-1,8.751900196E-1,-5.161476135E-2
1.151853188E0,-6.190636158E-1,9.296448231E-1,1.340866089E-3
1.156853188E0,-6.810910702E-1,9.627714157E-1,1.162834167E-1
1.161853188E0,-6.941387653E-1,9.866714478E-1,2.867546082E-1
1.166853188E0,-6.668202877E-1,9.898412228E-1,5.342082977E-1
1.171853188E0,-5.987093449E-1,9.999165535E-1,8.362379074E-1
1.176853188E0,-5.531835556E-1,1.013590336E0,1.166703224E0
1.181853188E0,-5.179910660E-1,9.872312546E-1,1.518871307E0
1.186853188E0,-4.766714573E-1,9.443881512E-1,1.820326805E0
1.191853188E0,-4.395821095E-1,8.943579197E-1,2.054987907E0
1.196853188E0,-4.200389385E-1,8.378398418E-1,2.256396294E0
1.201853188E0,-4.240195751E-1,7.772872448E-1,2.338217735E0
1.206853188E0,-4.023802280E-1,7.171907425E-1,2.344936371E0
1.211853188E0,-3.880484104E-1,6.448235512E-1,2.256412506E0
1.216853188E0,-3.686513901E-1,6.178801060E-1,2.170652390E0
1.221853188E0,-3.277590275E-1,6.031014919E-1,2.029299736E0
1.226853188E0,-2.904322147E-1,5.572445393E-1,1.839895248E0
1.231853188E0,-2.569706440E-1,5.288779736E-1,1.636467934E0
1.236853188E0,-2.445502281E-1,4.919705391E-1,1.433595657E0
1.241853188E0,-2.339434624E-1,4.454121590E-1,1.214798927E0
1.246853188E0,-2.351863384E-1,3.887035847E-1,1.024741173E0
1.251853188E0,-2.399618626E-1,3.395335674E-1,8.419742584E-1
1.256853188E0,-2.918796539E-1,2.720849514E-1,6.037044525E-1
1.261853188E0,-3.436303139E-1,2.599263191E-1,3.548517227E-1
1.266853188E0,-4.088901281E-1,2.459511757E-1,1.104307175E-1
1.271853188E0,-4.651781321E-1,2.445213795E-1,-8.501338959E-2
1.276853188E0,-5.642073154E-1,1.958351135E-1,-1.079902649E-1
1.281853188E0,-7.115683556E-1,1.578810215E-1,4.602527618E-2
1.286853188E0,-8.611801863E-1,1.003444195E-1,3.916568756E-1
1.291853188E0,-9.942274094E-1,1.456999779E-2,8.183231354E-1
1.296853188E0,-1.049927354E0,-1.278254986E-1,1.326671600E0
1.301853188E0,-1.014514446E0,-2.447748184E-1,1.854051590E0
1.306853188E0,-9.717388153E-1,-3.445274830E-1,2.388334274E0
1.311853188E0,-8.767609596E-1,-4.257173538E-1,2.815920830E0
1.316853188E0,-7.535055876E-1,-4.829301834E-1,3.079867363E0
1.321853188E0,-6.276576519E-1,-5.356163979E-1,3.138512611E0
1.326853188E0,-4.869265556E-1,-5.025441647E-1,3.075592041E0
1.331853188E0,-4.344285727E-1,-4.828639030E-1,2.994875908E0
1.336853188E0,-4.758638144E-1,-4.857084751E-1,2.757044792E0
1.341853188E0,-5.853443146E-1,-4.849779606E-1,2.360210419E0
1.346853188E0,-6.921205521E-1,-5.289907455E-1,1.899503708E0
1.351853188E0,-7.480422258E-1,-5.752453804E-1,1.364165306E0
1.356853188E0,-7.480270863E-1,-5.724327564E-1,7.954692841E-1
1.361853188E0,-7.066588402E-1,-5.693442822E-1,2.056617737E-1
1.366853188E0,-6.525590420E-1,-5.307214260E-1,-2.621517181E-1
1.371853188E0,-6.038650274E-1,-5.372815132E-1,-7.133979797E-1
1.376853188E0,-5.801559687E-1,-5.446274281E-1,-1.026852608E0
1.381853188E0,-5.906891823E-1,-5.527029037E-1,-1.252027512E0
1.386853188E0,-5.982105732E-1,-5.635232925E-1,-1.396995068E0
1.391853188E0,-6.031159163E-1,-5.749909878E-1,-1.490560055E0
1.396853188E0,-5.673110485E-1,-5.556046963E-1,-1.513144970E0
1.401853188E0,-5.182549953E-1,-5.322012901E-1,-1.440109253E0
1.406853188E0,-4.750154018E-1,-5.338728428E-1,-1.291110992E0
1.411853188E0,-4.388376474E-1,-5.751419067E-1,-1.049753189E0
1.416853188E0,-4.431649446E-1,-6.140716076E-1,-7.832908630E-1
1.421853188E0,-4.422760010E-1,-6.541233063E-1,-4.491081238E-1
1.426853188E0,-4.555772543E-1,-6.590962410E-1,-1.388587952E-1
1.431853188E0,-4.210089445E-1,-6.553449631E-1,1.051092148E-1
1.436853188E0,-3.684331179E-1,-6.553866863E-1,2.573776245E-1
1.441853188E0,-3.061105013E-1,-6.584830284E-1,3.771314621E-1
1.446853188E0,-2.123250961E-1,-6.430437565E-1,4.486684799E-1
1.451853188E0,-1.098245382E-1,-6.297240257E-1,4.841680527E-1
1.456853188E0,-1.048529148E-2,-6.352579594E-1,4.959602356E-1
1.461853188E0,1.092568636E-1,-6.486470699E-1,4.988050461E-1
1.466853188E0,2.407351732E-1,-6.622848511E-1,4.184274673E-1
1.471853188E0,3.658326864E-1,-6.712217331E-1,3.197441101E-1
1.476853188E0,4.715631604E-1,-6.581163406E-1,1.491718292E-1
1.481853188E0,5.620118976E-1,-6.471650600E-1,-7.679176331E-2
1.486853188E0,6.051288843E-1,-6.206142902E-1,-3.679447174E-1
1.491853188E0,6.102415919E-1,-5.781164169E-1,-6.887788773E-1
1.496853188E0,5.923385024E-1,-5.321512222E-1,-1.022021294E0
1.501853188E0,5.757143497E-1,-4.731943607E-1,-1.371793747E0
1.506853188E0,5.726069808E-1,-4.176614285E-1,-1.713278770E0
1.511853188E0,5.738897920E-1,-3.339543343E-1,-2.028515816E0
1.516853188E0,5.785408616E-1,-2.643129826E-1,-2.306014061E0
1.521853188E0,5.975728631E-1,-2.209389210E-1,-2.544214725E0
1.526853188E0,5.862929225E-1,-1.574256420E-1,-2.730614185E0
1.531853188E0,5.569568872E-1,-8.259797096E-2,-2.886095524E0
1.536853188E0,5.251106024E-1,-8.024930954E-3,-2.984554768E0
1.541853188E0,4.683532715E-1,5.786061287E-2,-3.034838676E0
1.546853188E0,4.463694692E-1,8.306837082E-2,-3.068583012E0
1.551853188E0,4.160560966E-1,9.957361221E-2,-3.085163593E0
1.556853188E0,3.987534642E-1,1.224853992E-1,-3.071778774E0
1.561853188E0,3.781346679E-1,1.189987659E-1,-3.037743092E0
1.566853188E0,3.623144627E-1,1.434605122E-1,-2.962778091E0
1.571853188E0,3.320173025E-1,1.547625065E-1,-2.822029114E0
1.576853188E0,3.088767529E-1,1.396007538E-1,-2.639461994E0
1.581853188E0,2.957913876E-1,1.173279285E-1,-2.429402828E0
1.586853188E0,3.197274208E-1,7.735466957E-2,-2.273974895E0
1.591853188E0,3.700498939E-1,6.433916092E-2,-2.128048420E0
1.596853188E0,4.226020575E-1,6.940793991E-2,-1.960483074E0
1.601853188E0,4.573164284E-1,9.409213066E-2,-1.769625664E0
1.606853188E0,4.463014007E-1,1.083576679E-1,-1.595453739E0
1.611853188E0,4.232802689E-1,1.021566391E-1,-1.417604446E0
1.616853188E0,3.461881876E-1,1.667096615E-1,-1.246750832E0
1.621853188E0,2.515943050E-1,2.561850548E-1,-1.067416191E0
1.626853188E0,1.379003525E-1,3.417501450E-1,-8.791351318E-1
1.631853188E0,4.840916395E-2,3.976528645E-1,-7.002182007E-1
1.636853188E0,-1.007503271E-2,4.640173912E-1,-5.127058029E-1
1.641853188E0,-6.337797642E-2,4.864327908E-1,-3.409719467E-1
1.646853188E0,-8.699107170E-2,5.117392540E-1,-2.175064087E-1
1.651853188E0,-9.588450193E-2,5.286827087E-1,-1.033020020E-1
1.656853188E0,-1.173774004E-1,5.396542549E-1,-1.042556763E-2
1.661853188E0,-1.346510053E-1,5.637145042E-1,5.774974823E-2
1.666853188E0,-1.066293120E-1,5.855660439E-1,8.177375793E-2
1.671853188E0,-3.778493404E-2,5.746951103E-1,5.158424377E-2
1.676853188E0,5.912107229E-2,5.629775524E-1,8.480072021E-3
1.681853188E0,2.161597610E-1,4.894342422E-1,-4.095363617E-2
1.686853188E0,3.580738902E-1,4.121167660E-1,-1.267862320E-1
1.691853188E0,3.300878704E-1,4.436540604E-1,-1.882104874E-1
1.696853188E0,3.069189191E-1,4.571528435E-1,-2.404174805E-1
1.701853188E0,2.803890705E-1,4.693520069E-1,-2.771978378E-1
1.706853188E0,2.276324630E-1,4.855892658E-1,-2.846307755E-1
1.711853188E0,1.575234532E-1,4.959282875E-1,-2.426986694E-1
1.716853188E0,9.054702520E-2,4.460487366E-1,-1.783733368E-1
1.721853188E0,4.961511493E-2,4.177975655E-1,-8.980178833E-2
1.726853188E0,1.969307661E-2,4.107885361E-1,-2.337169647E-2
1.731853188E0,4.286456108E-2,4.022355080E-1,1.635742188E-2
1.736853188E0,3.168278933E-2,3.831360340E-1,1.673135757E-1
1.741853188E0,-2.494841814E-3,3.646783829E-1,3.423547745E-1
1.746853188E0,-2.929326892E-2,3.751938343E-1,5.043640137E-1
1.751853188E0,-6.632158160E-2,4.124457836E-1,6.701059341E-1
1.756853188E0,-1.201240122E-1,4.531805515E-1,7.815818787E-1
1.761853188E0,-2.111957371E-1,5.105466843E-1,8.892078400E-1
1.766853188E0,-2.871403992E-1,5.278854370E-1,9.751663208E-1
1.771853188E0,-3.101887703E-1,5.240013599E-1,9.956293106E-1
1.776853188E0,-2.975352705E-1,5.383157730E-1,9.622268677E-1
1.781853188E0,-2.633349299E-1,5.682444572E-1,1.015166283E0
1.786853188E0,-2.146579325E-1,5.471584797E-1,9.683723450E-1
1.791853188E0,-1.574676037E-1,4.982626438E-1,7.786436081E-1
1.796853188E0,-1.035784483E-1,4.540431499E-1,6.794309616E-1
1.801853188E0,-8.370786905E-3,4.004182816E-1,5.689668655E-1
1.806853188E0,7.554242015E-2,2.880959511E-1,4.403724670E-1
1.811853188E0,1.933157444E-2,1.826062202E-1,2.966737747E-1
1.816853188E0,1.413936168E-1,1.485648155E-1,1.758260727E-1
1.821853188E0,2.562437952E-1,1.120612621E-1,1.054763794E-1
1.826853188E0,3.306854367E-1,6.045055389E-2,1.589756012E-1
1.831853188E0,3.848501742E-1,3.928899765E-3,3.020706177E-1
1.836853188E0,3.899934292E-1,-6.322813034E-2,5.268526077E-1
1.841853188E0,3.957847655E-1,-1.081509590E-1,9.073200226E-1
1.846853188E0,3.679139614E-1,-8.817267418E-2,1.351860046E0
1.851853188E0,3.016965687E-1,-6.671190262E-3,1.839233398E0
1.856853188E0,1.989749968E-1,1.117322445E-1,2.333454132E0
1.861853188E0,1.120165586E-1,2.604072094E-1,2.834086418E0
1.866853188E0,3.010338545E-2,3.861439228E-1,3.269472122E0
1.871853188E0,-3.151682019E-2,4.432561398E-1,3.629468918E0
1.876853188E0,-1.195636392E-2,4.112064838E-1,3.911086082E0
1.881853188E0,1.590398848E-1,2.879264355E-1,4.077137947E0
1.886853188E0,4.171131849E-1,1.031222343E-1,4.072426796E0
1.891853188E0,6.444415450E-1,-1.061024666E-1,3.771682739E0
1.896853188E0,7.497155666E-1,-3.223509789E-1,3.307282448E0
1.901853188E0,7.575283051E-1,-4.563152790E-1,2.792756081E0
1.906853188E0,6.873180866E-1,-5.495021343E-1,2.196783066E0
1.911853188E0,5.658828020E-1,-6.310064793E-1,1.627093315E0
1.916853188E0,5.920507908E-1,-6.937215328E-1,1.037216187E0
1.921853188E0,7.768432498E-1,-6.826102734E-1,4.722824097E-1
1.926853188E0,9.115272760E-1,-6.521623135E-1,8.283901215E-2
1.931853188E0,9.848989248E-1,-5.960340500E-1,-2.305355072E-1
1.936853188E0,1.009981155E0,-5.918221474E-1,-4.710197449E-1
1.941853188E0,1.019699812E0,-5.833754539E-1,-6.174612045E-1
1.946853188E0,9.256381989E-1,-4.812102318E-1,-5.795125961E-1
1.951853188E0,7.305927277E-1,-4.078397751E-1,-4.603738785E-1
1.956853188E0,5.929603577E-1,-3.522560596E-1,-3.725147247E-1
1.961853188E0,4.775426686E-1,-3.253018856E-1,-2.492113113E-1
1.966853188E0,4.600272477E-1,-3.292315006E-1,-9.547615051E-2
1.971853188E0,4.653724134E-1,-2.934985161E-1,8.550357819E-2
1.976853188E0,4.660511613E-1,-2.883980274E-1,2.268257141E-1
1.981853188E0,4.997197986E-1,-3.194704056E-1,3.458328247E-1
1.986853188E0,5.919497013E-1,-4.006617069E-1,3.799581528E-1
1.991853188E0,6.895862818E-1,-4.356803894E-1,4.882211685E-1
1.996853188E0,7.027502060E-1,-3.902602196E-1,6.277084351E-1
2.001853188E0,6.873559356E-1,-3.706798553E-1,6.183500290E-1
2.006853188E0,6.413059235E-1,-3.971896172E-1,5.640134811E-1
2.011853188E0,5.898356438E-1,-4.329164028E-1,4.602861404E-1
2.016853188E0,5.347124338E-1,-4.328610897E-1,3.501501083E-1
2.021853188E0,4.510675371E-1,-4.296555519E-1,2.449722290E-1
2.026853188E0,4.413393140E-1,-4.228835106E-1,6.226062775E-2
2.031853188E0,3.740589023E-1,-4.810090065E-1,-1.922664642E-1
2.036853188E0,3.730707765E-1,-5.005364418E-1,-4.719123840E-1
2.041853188E0,3.541444540E-1,-5.243480206E-1,-7.564430237E-1
2.046853188E0,3.400273919E-1,-5.384235382E-1,-1.087955475E0
2.051853188E0,3.026524186E-1,-5.620093346E-1,-1.384140968E0
2.056853188E0,3.086405396E-1,-5.672664642E-1,-1.641907692E0
2.061853188E0,3.545021415E-1,-5.595457554E-1,-1.853027821E0
2.066853188E0,4.130268097E-1,-5.244445801E-1,-2.137209415E0
2.071853188E0,4.233331680E-1,-5.168445110E-1,-2.458874702E0
2.076853188E0,3.930564523E-1,-5.341682434E-1,-2.691410065E0
2.081853188E0,3.267178535E-1,-4.654057026E-1,-2.878794193E0
2.086853188E0,2.592368126E-1,-4.174158573E-1,-3.038712978E0
2.091853188E0,1.891262531E-1,-3.781821728E-1,-3.162418365E0
2.096853188E0,1.324579716E-1,-3.534479141E-1,-3.281572819E0
2.101853188E0,1.084824800E-1,-3.167579174E-1,-3.338263512E0
2.106853188E0,7.504189014E-2,-2.914109230E-1,-3.325085640E0
2.111853188E0,1.675728559E-1,-3.113114834E-1,-3.283802509E0
2.116853188E0,3.785492182E-1,-3.741593361E-1,-3.119209290E0
2.121853188E0,4.391256571E-1,-3.031370640E-1,-2.892542839E0
2.126853188E0,5.022648573E-1,-2.261745930E-1,-2.668007851E0
2.131853188E0,6.678578854E-1,-2.435238361E-1,-2.517541409E0
2.136853188E0,6.683275700E-1,-1.459131241E-1,-2.176438808E0
2.141853188E0,6.299020052E-1,-5.652213097E-2,-1.914187431E0
2.146853188E0,9.313470125E-1,-1.984970570E-1,-1.801209450E0
2.151853188E0,9.395427704E-1,-1.180820465E-1,-1.565476894E0
2.156853188E0,8.642007113E-1,-9.416580200E-3,-1.516534805E0
2.161853188E0,1.064788461E0,-1.175744534E-1,-1.611301899E0
2.166853188E0,1.050862789E0,-8.747458458E-2,-1.489343643E0
2.171853188E0,7.411863804E-1,1.885795593E-1,-1.445016384E0
2.176853188E0,6.232504845E-1,2.680733204E-1,-1.503581047E0
2.181853188E0,7.586719990E-1,1.247911453E-1,-1.562324524E0
2.186853188E0,6.953134537E-1,1.668415070E-1,-1.373209953E0
2.191853188E0,4.467003345E-1,3.605039120E-1,-1.278520584E0
2.196853188E0,3.530611992E-1,4.698312283E-1,-1.343227863E0
2.201853188E0,3.498698473E-1,4.973185062E-1,-1.411273956E0
2.206853188E0,3.522570133E-1,4.969832897E-1,-1.451584816E0
2.211853188E0,2.991887331E-1,4.812943935E-1,-1.426775455E0
2.216853188E0,2.366923094E-1,4.799537659E-1,-1.392297745E0
2.221853188E0,1.398164034E-1,4.772346020E-1,-1.291336060E0
2.226853188E0,1.055765152E-1,5.260832310E-1,-1.248978138E0
2.231853188E0,9.207916260E-2,6.182994843E-1,-1.180144787E0
2.236853188E0,4.656481743E-2,7.285542488E-1,-1.082307816E0
2.241853188E0,-1.201581955E-2,8.210341930E-1,-1.003778458E0
2.246853188E0,-6.755852699E-2,8.885312080E-1,-9.471321106E-1
2.251853188E0,-1.200251579E-1,9.010546207E-1,-8.343505859E-1
2.256853188E0,-1.329982281E-1,8.796508312E-1,-7.571115494E-1
2.261853188E0,-1.220006943E-1,8.553504944E-1,-7.435741425E-1
2.266853188E0,-1.076900959E-1,8.619477749E-1,-6.655349731E-1
2.271853188E0,-1.440572739E-1,8.384270668E-1,-5.884437561E-1
2.276853188E0,-2.171139717E-1,8.255476952E-1,-4.756994247E-1
2.281853188E0,-2.859947681E-1,8.126070499E-1,-3.109560013E-1
2.286853188E0,-3.106467724E-1,8.030862808E-1,-1.167535782E-1
2.291853188E0,-3.804874420E-1,7.809367180E-1,2.040519714E-1
2.296853188E0,-3.987085819E-1,7.227892876E-1,5.724372864E-1
2.301853188E0,-3.568279743E-1,6.866455078E-1,8.769855499E-1
2.306853188E0,-3.701882362E-1,6.739871502E-1,1.200454712E0
2.311853188E0,-4.501135349E-1,7.040119171E-1,1.527070045E0
2.316853188E0,-5.529749393E-1,7.452702522E-1,1.793634415E0
2.321853188E0,-7.039909363E-1,8.098094463E-1,1.935936928E0
2.326853188E0,-8.231923580E-1,8.368537426E-1,1.991300583E0
2.331853188E0,-9.231910706E-1,8.481161594E-1,1.967336655E0
2.336853188E0,-1.003450394E0,8.029127121E-1,1.871374130E0
2.341853188E0,-1.070348501E0,7.300212383E-1,1.753386497E0
2.346853188E0,-1.066283941E0,6.391088963E-1,1.575281143E0
2.351853188E0,-9.979395866E-1,5.755231380E-1,1.359961510E0
2.356853188E0,-8.685564995E-1,5.528988838E-1,1.154232979E0
2.361853188E0,-6.966819763E-1,5.287840366E-1,9.543504715E-1
2.366853188E0,-5.625016689E-1,5.019209385E-1,7.687473297E-1
2.371853188E0,-4.687514305E-1,4.447786808E-1,5.873117447E-1
2.376853188E0,-4.539699554E-1,4.038178921E-1,4.390077591E-1
2.381853188E0,-4.989974499E-1,3.814337254E-1,2.993965149E-1
2.386853188E0,-5.856952667E-1,4.106109142E-1,1.831226349E-1
2.391853188E0,-7.364804745E-1,4.135317802E-1,1.093845367E-1
2.396853188E0,-9.573113918E-1,4.588339329E-1,1.101913452E-1
2.401853188E0,-1.221957445E0,5.024218559E-1,2.135248184E-1
2.406853188E0,-1.502586126E0,5.321431160E-1,4.618368149E-1
2.411853188E0,-1.689148188E0,5.603842735E-1,8.661289215E-1
2.416853188E0,-1.809442520E0,5.351302624E-1,1.404102325E0
2.421853188E0,-1.898150206E0,4.382600784E-1,2.158968925E0
2.426853188E0,-1.916683435E0,3.073365688E-1,3.028351784E0
2.431853188E0,-1.818111897E0,1.630990505E-1,3.872361183E0
2.436853188E0,-1.646099806E0,2.192783356E-2,4.570446968E0
2.441853188E0,-1.447879076E0,-1.146678925E-1,4.981027603E0
2.446853188E0,-1.282987595E0,-2.349183559E-1,5.061288834E0
2.451853188E0,-1.200501919E0,-3.270976543E-1,4.901108742E0
2.456853188E0,-1.179343939E0,-4.268970490E-1,4.536170006E0
2.461853188E0,-1.168951035E0,-5.304174423E-1,3.997335434E0
2.466853188E0,-1.196001053E0,-6.391284466E-1,3.286957741E0
2.471853188E0,-1.208836079E0,-7.426769733E-1,2.497707367E0
2.476853188E0,-1.179173470E0,-8.221457005E-1,1.705780983E0
2.481853188E0,-1.073607206E0,-8.240559101E-1,1.007882118E0
2.486853188E0,-9.228844643E-1,-8.411624432E-1,3.982353210E-1
2.491853188E0,-8.283267021E-1,-7.990157604E-1,-1.379060745E-1
2.496853188E0,-7.654840946E-1,-7.453634739E-1,-5.656509399E-1
2.501853188E0,-7.251772881E-1,-7.058928013E-1,-8.738346100E-1
2.506853188E0,-7.285289764E-1,-6.946716309E-1,-1.077560425E0
2.511853188E0,-7.914185524E-1,-7.340517044E-1,-1.196523190E0
2.516853188E0,-8.620295525E-1,-7.565932274E-1,-1.207098007E0
2.521853188E0,-9.376664162E-1,-7.782990932E-1,-1.120659351E0
2.526853188E0,-9.624106884E-1,-8.269743919E-1,-9.615936279E-1
2.531853188E0,-9.743955135E-1,-8.614912033E-1,-7.538232803E-1
2.536853188E0,-9.474112988E-1,-8.997764587E-1,-4.678268433E-1
2.541853188E0,-8.965816498E-1,-9.141745567E-1,-1.414699554E-1
2.546853188E0,-8.718378544E-1,-9.280076027E-1,1.544351578E-1
2.551853188E0,-8.444211483E-1,-9.112894535E-1,3.977403641E-1
2.556853188E0,-8.488647938E-1,-8.606853485E-1,5.927486420E-1
2.561853188E0,-8.922307491E-1,-8.056385517E-1,7.351417542E-1
2.566853188E0,-9.726941586E-1,-8.028590679E-1,8.192300797E-1
2.571853188E0,-1.062339306E0,-8.156764507E-1,8.398571014E-1
2.576853188E0,-1.152285099E0,-8.520617485E-1,7.714080811E-1
2.581853188E0,-1.187309027E0,-8.808641434E-1,6.557722092E-1
2.586853188E0,-1.171719074E0,-8.791279793E-1,5.145845413E-1
2.591853188E0,-1.146753073E0,-8.667509556E-1,3.639545441E-1
2.596853188E0,-1.105920792E0,-8.636868000E-1,2.232475281E-1
2.601853188E0,-1.022527695E0,-8.479871750E-1,9.220504761E-2
2.606853188E0,-9.047346115E-1,-8.339345455E-1,-2.876281738E-2
2.611853188E0,-7.670404911E-1,-8.293368816E-1,-1.495752335E-1
2.616853188E0,-6.572537422E-1,-8.183608055E-1,-2.500171661E-1
2.621853188E0,-5.268824100E-1,-7.980921268E-1,-3.475551605E-1
2.626853188E0,-4.098510742E-1,-7.707564831E-1,-4.336929321E-1
2.631853188E0,-2.865066528E-1,-7.476892471E-1,-5.328369141E-1
2.636853188E0,-1.085529327E-1,-6.734344959E-1,-6.826705933E-1
2.641853188E0,1.181547642E-1,-6.454248428E-1,-7.935495377E-1
2.646853188E0,2.742750645E-1,-6.373965740E-1,-9.310913086E-1
2.651853188E0,3.433587551E-1,-6.366076469E-1,-1.077928543E0
2.656853188E0,3.475272655E-1,-6.261994839E-1,-1.216938972E0
2.661853188E0,3.740611076E-1,-5.987801552E-1,-1.396473885E0
2.666853188E0,4.554147720E-1,-5.653033257E-1,-1.600851536E0
2.671853188E0,5.989098549E-1,-5.109534264E-1,-1.781448841E0
2.676853188E0,7.637128830E-1,-4.882850647E-1,-1.959739685E0
2.681853188E0,9.107078314E-1,-4.753775597E-1,-2.105783939E0
2.686853188E0,1.020465255E0,-4.744439125E-1,-2.262589455E0
2.691853188E0,1.073410511E0,-4.811398983E-1,-2.349040985E0
2.696853188E0,1.052785873E0,-4.698410034E-1,-2.449273109E0
2.701853188E0,1.000224710E0,-4.470918179E-1,-2.511361122E0
2.706853188E0,9.564976692E-1,-3.926467896E-1,-2.526056290E0
2.711853188E0,9.188255072E-1,-3.465962410E-1,-2.496604919E0
2.716853188E0,8.734985590E-1,-2.788889408E-1,-2.480370045E0
2.721853188E0,8.269895315E-1,-2.032091618E-1,-2.466018200E0
2.726853188E0,7.523308992E-1,-1.249387264E-1,-2.448106289E0
2.731853188E0,6.607794762E-1,-4.488205910E-2,-2.401453495E0
2.736853188E0,5.963895321E-1,8.198499680E-3,-2.364418983E0
2.741853188E0,5.226209164E-1,3.671288490E-2,-2.274452686E0
2.746853188E0,4.469252825E-1,5.725097656E-2,-2.098127365E0
2.751853188E0,3.968069553E-1,8.518028259E-2,-1.862485886E0
2.756853188E0,3.474838734E-1,1.107761860E-1,-1.606222153E0
2.761853188E0,3.726419210E-1,1.735575199E-1,-1.362305164E0
2.766853188E0,4.316608906E-1,2.006750107E-1,-1.138910294E0
2.771853188E0,5.380636454E-1,2.050714493E-1,-9.628181458E-1
2.776853188E0,6.228057146E-1,1.798887253E-1,-8.264093399E-1
2.781853188E0,6.901404858E-1,1.486887932E-1,-7.172861099E-1
2.786853188E0,7.097907066E-1,1.295197010E-1,-6.936807632E-1
2.791853188E0,7.103333473E-1,1.124479771E-1,-7.029304504E-1
2.796853188E0,7.033613920E-1,1.293516159E-1,-7.419748306E-1
2.801853188E0,6.866227388E-1,1.629791260E-1,-7.910308838E-1
2.806853188E0,6.651148796E-1,2.297766209E-1,-8.152723312E-1
2.811853188E0,6.515080929E-1,2.702593803E-1,-8.447952271E-1
2.816853188E0,6.432056427E-1,3.037781715E-1,-8.431491852E-1
2.821853188E0,6.031469107E-1,3.341145515E-1,-8.154678345E-1
2.826853188E0,5.627650023E-1,3.719284534E-1,-7.394618988E-1
2.831853188E0,5.413358212E-1,4.157872200E-1,-6.938085556E-1
2.836853188E0,5.132595301E-1,4.058659077E-1,-5.906744003E-1
2.841853188E0,5.253500938E-1,3.725645542E-1,-4.700689316E-1
2.846853188E0,5.631562471E-1,3.287839890E-1,-3.262128830E-1
2.851853188E0,5.641136169E-1,2.654168606E-1,-1.880531311E-1
2.856853188E0,5.903563499E-1,1.987330914E-1,-5.624961853E-2
2.861853188E0,5.958464146E-1,1.523356438E-1,1.156797409E-1
2.866853188E0,5.916118622E-1,1.108105183E-1,2.603473663E-1
2.871853188E0,5.361888409E-1,9.315729141E-2,3.812770844E-1
2.876853188E0,4.533728361E-1,7.794547081E-2,4.951677322E-1
2.881853188E0,3.071650267E-1,6.288623810E-2,5.825662613E-1
2.886853188E0,2.371913195E-1,7.497191429E-2,5.925855637E-1
2.891853188E0,1.950632334E-1,1.117043495E-1,5.739040375E-1
2.896853188E0,1.947276592E-1,1.401164532E-1,5.138988495E-1
2.901853188E0,2.488653660E-1,1.398301125E-1,4.592723846E-1
2.906853188E0,2.801653147E-1,7.330346107E-2,3.351793289E-1
2.911853188E0,3.561112881E-1,-1.197552681E-2,2.196598053E-1
2.916853188E0,3.629138470E-1,-1.132955551E-1,1.118936539E-1
2.921853188E0,3.192996979E-1,-1.716814041E-1,-2.725601196E-3
2.926853188E0,2.756937742E-1,-1.889967918E-1,-9.737014771E-2
2.931853188E0,2.505691051E-1,-1.617479324E-1,-2.030019760E-1
2.936853188E0,2.572335005E-1,-1.166408062E-1,-2.610807419E-1
2.941853188E0,3.291724920E-1,-8.874702454E-2,-2.999811172E-1
2.946853188E0,4.198166132E-1,-8.566522598E-2,-2.696409225E-1
2.951853188E0,5.136296749E-1,-1.454348564E-1,-2.061538696E-1
2.956853188E0,6.302495003E-1,-1.717195511E-1,-1.432952881E-1
2.961853188E0,7.312804461E-1,-1.958553791E-1,-3.861904144E-2
2.966853188E0,8.377634883E-1,-2.328035831E-1,8.081722260E-2
2.971853188E0,9.440791607E-1,-2.516319752E-1,2.482566833E-1
2.976853188E0,9.938270450E-1,-2.808856964E-1,5.154962540E-1
2.981853188E0,9.641774297E-1,-3.056068420E-1,8.390970230E-1
2.986853188E0,8.920981288E-1,-2.970564365E-1,1.294089317E0
2.991853188E0,7.660100460E-1,-2.463955879E-1,1.783397675E0
2.996853188E0,6.575987339E-1,-2.020587921E-1,2.321278572E0
3.001853188E0,5.592219830E-1,-1.897346973E-1,2.899612427E0
3.006853188E0,4.010010958E-1,-2.048223019E-1,3.473517418E0
3.011853188E0,2.312251329E-1,-2.423715591E-1,3.982535362E0
3.016853188E0,1.193543673E-1,-3.127710819E-1,4.343215942E0
3.021853188E0,5.331230164E-2,-4.470632076E-1,4.557832718E0
3.026853188E0,7.349538803E-2,-5.946562290E-1,4.521498680E0
3.031853188E0,1.246069670E-1,-7.211890221E-1,4.338952065E0
3.036853188E0,2.192828655E-1,-7.713406086E-1,4.025855064E0
3.041853188E0,3.536322117E-1,-7.736694813E-1,3.615094185E0
3.046853188E0,5.152705908E-1,-7.430093288E-1,3.095953941E0
3.051853188E0,6.659127474E-1,-7.056493759E-1,2.546213150E0
3.056853188E0,7.430928946E-1,-6.086885929E-1,1.975615501E0
3.061853188E0,7.218400240E-1,-4.861328602E-1,1.448143959E0
3.066853188E0,7.155471444E-1,-4.654617310E-1,9.543666840E-1
3.071853188E0,7.724216580E-1,-5.327808857E-1,4.148464203E-1
3.076853188E0,6.647812128E-1,-5.176150799E-1,9.584903717E-2
3.081853188E0,6.098451614E-1,-4.764723778E-1,-1.939249039E-1
3.086853188E0,5.249254704E-1,-4.587628841E-1,-4.304189682E-1
3.091853188E0,3.654687405E-1,-4.953906536E-1,-5.411539078E-1
3.096853188E0,3.008909225E-1,-5.268006325E-1,-5.834093094E-1
3.101853188E0,3.539346457E-1,-4.782826900E-1,-5.565023422E-1
3.106853188E0,3.899698257E-1,-4.201982021E-1,-4.360227585E-1
3.111853188E0,3.773070574E-1,-3.901648521E-1,-2.641086578E-1
3.116853188E0,4.164731503E-1,-3.687579632E-1,-8.308410645E-2
3.121853188E0,4.660518169E-1,-3.394174576E-1,1.346340179E-1
3.126853188E0,4.547117949E-1,-3.147282600E-1,3.815717697E-1
3.131853188E0,3.975880146E-1,-3.256902695E-1,6.053714752E-1
3.136853188E0,3.380728960E-1,-3.516716957E-1,7.597837448E-1
3.141853188E0,2.338691950E-1,-3.548781872E-1,8.917512894E-1
3.146853188E0,1.613017321E-1,-3.377978802E-1,1.008288383E0
3.151853188E0,9.983968735E-2,-3.042924404E-1,9.764013290E-1
3.156853188E0,-2.979683876E-2,-2.073144913E-1,8.963098526E-1
3.161853188E0,-1.377367973E-1,-1.325542927E-1,7.184534073E-1
3.166853188E0,-2.054204941E-1,-9.853196144E-2,4.493827820E-1
3.171853188E0,-2.545568943E-1,-8.584475517E-2,1.376705170E-1
3.176853188E0,-1.847198009E-1,-7.239627838E-2,-3.100404739E-1
3.181853188E0,4.648089409E-2,-1.653437614E-1,-8.491401672E-1
3.186853188E0,2.089409828E-1,-2.647845745E-1,-1.402554035E0
3.191853188E0,2.603814602E-1,-3.338093758E-1,-1.922026634E0
3.196853188E0,2.031211853E-1,-3.351831436E-1,-2.418048859E0
3.201853188E0,1.778390408E-1,-2.583005428E-1,-2.863134861E0
3.206853188E0,1.724436283E-1,-2.404980659E-1,-3.301067829E0
3.211853188E0,2.014555931E-1,-2.196130753E-1,-3.675822735E0
3.216853188E0,1.523044109E-1,-1.741571426E-1,-4.117644310E0
3.221853188E0,3.801012039E-2,-7.000851631E-2,-4.578687668E0
3.226853188E0,-1.633260250E-1,5.880594254E-3,-4.808996677E0
3.231853188E0,-2.675867081E-1,4.751944542E-2,-4.787538052E0
3.236853188E0,-2.620983124E-1,3.621864319E-2,-4.461828709E0
3.241853188E0,-1.809694767E-1,2.199888229E-2,-3.944762230E0
3.246853188E0,-3.307056427E-2,-3.822326660E-3,-3.329087257E0
3.251853188E0,1.509282589E-1,9.846448898E-3,-2.684478760E0
3.256853188E0,2.553009987E-1,4.368257523E-2,-1.965752125E0
3.261853188E0,3.174641132E-1,9.372544289E-2,-1.276934147E0
3.266853188E0,2.834672928E-1,1.439766884E-1,-7.760705948E-1
3.271853188E0,2.128217220E-1,2.274999619E-1,-4.681892395E-1
3.276853188E0,1.776993275E-1,3.186178207E-1,-2.651119232E-1
3.281853188E0,1.926696301E-1,3.820159435E-1,-1.856498718E-1
3.286853188E0,2.812874317E-1,4.225258827E-1,-8.491230011E-2
3.291853188E0,4.013185501E-1,4.667394161E-1,5.838203430E-2
3.296853188E0,5.762414932E-1,4.774384499E-1,1.170949936E-1
3.301853188E0,6.237545013E-1,4.683170319E-1,5.809307098E-2
3.306853188E0,5.995962620E-1,4.861874580E-1,-7.562446594E-2
3.311853188E0,4.934744835E-1,5.385220051E-1,-2.316923141E-1
3.316853188E0,1.507253647E-1,5.862827301E-1,-4.302997589E-1
3.321853188E0,-2.588717937E-1,5.846109390E-1,-8.530416489E-1
3.326853188E0,-4.483504295E-1,6.461539268E-1,-1.352239609E0
3.331853188E0,-4.232797623E-1,7.284762859E-1,-1.723870277E0
3.336853188E0,-2.614557743E-1,7.554323673E-1,-1.936053753E0
3.341853188E0,-5.466818810E-2,7.860975266E-1,-2.037962914E0
3.346853188E0,1.157865524E-1,7.537469864E-1,-2.060122490E0
3.351853188E0,1.156337261E-1,7.605865002E-1,-1.974935532E0
3.356853188E0,-2.610182762E-2,8.323841095E-1,-1.759888649E0
3.361853188E0,-1.404333115E-1,9.138100147E-1,-1.523661137E0
3.366853188E0,-1.859109402E-1,9.624738693E-1,-1.311194420E0
3.371853188E0,-1.469266415E-1,1.037996054E0,-1.110282898E0
3.376853188E0,-1.825180054E-1,1.057976723E0,-9.089374542E-1
3.381853188E0,-2.285964489E-1,1.065217495E0,-7.208728790E-1
3.386853188E0,-2.096736431E-1,1.101811886E0,-4.905881882E-1
3.391853188E0,-2.163708210E-1,1.120449305E0,-2.662057877E-1
3.396853188E0,-2.820675373E-1,1.159411907E0,-2.754974365E-2
3.401853188E0,-3.392765522E-1,1.180944204E0,1.818027496E-1
3.406853188E0,-4.375598431E-1,1.198351622E0,3.497085571E-1
3.411853188E0,-4.843127728E-1,1.186901093E0,5.226593018E-1
3.416853188E0,-4.484605789E-1,1.137888670E0,6.376028061E-1
3.421853188E0,-3.874104023E-1,1.090138435E0,7.267656326E-1
3.426853188E0,-2.912611961E-1,1.011797190E0,8.061542511E-1
3.431853188E0,-1.726467609E-1,9.565842152E-1,8.691492081E-1
3.436853188E0,-1.561081409E-1,8.684544563E-1,9.026670456E-1
3.441853188E0,-2.666194439E-1,8.101758957E-1,1.014704704E0
3.446853188E0,-3.841731548E-1,7.848780155E-1,1.081743240E0
3.451853188E0,-4.991316795E-1,7.737112045E-1,1.165176392E0
3.456853188E0,-5.607643127E-1,7.906169891E-1,1.289436340E0
3.461853188E0,-5.895082951E-1,7.555520535E-1,1.409521103E0
3.466853188E0,-5.583856106E-1,7.256145477E-1,1.562092781E0
3.471853188E0,-5.840778351E-1,7.422764301E-1,1.740968704E0
3.476853188E0,-6.319608688E-1,6.966874599E-1,1.874796867E0
3.481853188E0,-6.380102634E-1,6.658148766E-1,1.985882759E0
3.486853188E0,-5.636839867E-1,6.487796307E-1,2.131439209E0
3.491853188E0,-5.004210472E-1,5.559232235E-1,2.210748672E0
3.496853188E0,-3.948967457E-1,4.599840641E-1,2.214558601E0
3.501853188E0,-2.622351646E-1,3.036389351E-1,2.188549042E0
3.506853188E0,-1.821322441E-1,1.864891052E-1,2.144296646E0
3.511853188E0,-1.768045425E-1,1.306443214E-1,1.957016945E0
3.516853188E0,-1.599531174E-1,1.028177738E-1,1.751133919E0
3.521853188E0,-1.601569653E-1,7.240366936E-2,1.511249542E0
3.526853188E0,-1.720564365E-1,8.747100830E-2,1.308566093E0
3.531853188E0,-1.994748116E-1,6.623864174E-2,1.046076775E0
3.536853188E0,-2.322645187E-1,4.821467400E-2,7.692461014E-1
3.541853188E0,-2.495062351E-1,6.221246719E-2,5.004634857E-1
3.546853188E0,-3.958821297E-1,9.859323502E-2,2.684946060E-1
3.551853188E0,-5.480544567E-1,1.317584515E-1,1.201534271E-2
3.556853188E0,-7.195582390E-1,2.000203133E-1,-1.961832047E-1
3.561853188E0,-9.202816486E-1,2.733950615E-1,-3.600168228E-1
3.566853188E0,-1.179520607E0,3.198800087E-1,-4.617109299E-1
3.571853188E0,-1.397447348E0,3.410463333E-1,-4.606952667E-1
3.576853188E0,-1.595120192E0,2.909746170E-1,-3.756504059E-1
3.581853188E0,-1.717218399E0,1.673631668E-1,-2.049655914E-1
3.586853188E0,-1.782229424E0,5.144619942E-2,1.078567505E-1
3.591853188E0,-1.803898811E0,1.808285713E-2,5.028257370E-1
3.596853188E0,-1.707597733E0,-1.162238121E-1,8.127393723E-1
3.601853188E0,-1.620693445E0,-1.814572811E-1,1.219815254E0
3.606853188E0,-1.443451881E0,-3.078978062E-1,1.574772835E0
3.611853188E0,-1.208736658E0,-4.467456341E-1,1.829794884E0
3.616853188E0,-9.404852390E-1,-6.068731546E-1,2.062083244E0
3.621853188E0,-6.879317760E-1,-7.047090530E-1,2.264493942E0
3.626853188E0,-5.058681965E-1,-7.970335484E-1,2.389926910E0
3.631853188E0,-3.885765076E-1,-9.035056829E-1,2.478295326E0
3.636853188E0,-3.066344261E-1,-9.860445261E-1,2.476049423E0
3.641853188E0,-2.114651203E-1,-1.036972880E0,2.403051376E0
3.646853188E0,-1.820287704E-1,-1.111859202E0,2.259804726E0
3.651853188E0,-1.846797466E-1,-1.198734164E0,2.049391747E0
3.656853188E0,-1.757435799E-1,-1.226009369E0,1.805423737E0
3.661853188E0,-2.355303764E-1,-1.142130971E0,1.540705681E0
3.666853188E0,-3.026702404E-1,-1.010485768E0,1.299649239E0
3.671853188E0,-3.854882717E-1,-9.413816929E-1,1.004062653E0
3.676853188E0,-3.651642799E-1,-8.831559420E-1,6.403579712E-1
3.681853188E0,-3.989603519E-1,-8.303644657E-1,4.552583694E-1
3.686853188E0,-4.466092587E-1,-8.050756454E-1,3.748216629E-1
3.691853188E0,-3.916161060E-1,-8.855211735E-1,2.739229202E-1
3.696853188E0,-2.525023222E-1,-9.695445299E-1,1.357297897E-1
3.701853188E0,-6.664669514E-2,-1.140081406E0,-4.231548309E-2
3.706853188E0,1.403750181E-1,-1.264726758E0,-3.176574707E-1
3.711853188E0,2.912995815E-1,-1.227604389E0,-4.049024582E-1
3.716853188E0,1.959160566E-1,-1.091267228E0,-2.432098389E-1
3.721853188E0,4.832100868E-2,-7.817382812E-1,-1.662330627E-1
3.726853188E0,-1.487016678E-2,-5.704689026E-1,-1.915330887E-1
3.731853188E0,1.314425468E-1,-6.306529045E-1,-2.982273102E-1
3.736853188E0,3.979699612E-1,-8.231225014E-1,-2.862930298E-1
3.741853188E0,5.293439627E-1,-8.869628906E-1,-2.302789688E-1
3.746853188E0,7.384848595E-1,-9.286258221E-1,-1.648159027E-1
3.751853188E0,9.000077844E-1,-9.346891642E-1,-1.268119812E-1
3.756853188E0,9.981079102E-1,-8.747154474E-1,-8.767604828E-2
3.761853188E0,1.087803602E0,-7.149914503E-1,-8.187484741E-2
3.766853188E0,1.223717451E0,-5.428432226E-1,-1.410341263E-1
3.771853188E0,1.398622632E0,-5.131298304E-1,-2.217884064E-1
3.776853188E0,1.594506383E0,-5.223960876E-1,-4.122219086E-1
3.781853188E0,1.634422898E0,-5.389107466E-1,-5.832977295E-1
3.786853188E0,1.594574451E0,-4.990866184E-1,-6.683063507E-1
3.791853188E0,1.584275246E0,-4.969679117E-1,-8.857936859E-1
3.796853188E0,1.692018509E0,-5.654237270E-1,-1.176994324E0
3.801853188E0,1.760383606E0,-5.615810156E-1,-1.620701790E0
3.806853188E0,1.825962901E0,-5.264855623E-1,-1.894874096E0
3.811853188E0,1.954578400E0,-5.864671469E-1,-2.261019230E0
3.816853188E0,1.989696622E0,-6.418038607E-1,-2.585672855E0
3.821853188E0,2.036303282E0,-6.682944298E-1,-2.747894287E0
3.826853188E0,2.051876783E0,-6.375385523E-1,-2.831406116E0
3.831853188E0,1.930439472E0,-4.897769690E-1,-2.832862377E0
3.836853188E0,1.671482086E0,-3.228774071E-1,-2.806337833E0
3.841853188E0,1.343059301E0,-8.939123154E-2,-2.757602692E0
3.846853188E0,9.596226215E-1,1.473822594E-1,-2.630973816E0
3.851853188E0,6.861519814E-1,3.620882034E-1,-2.507237434E0
3.856853188E0,5.272557139E-1,4.794232845E-1,-2.484019756E0
3.861853188E0,4.028740525E-1,5.297656059E-1,-2.429535389E0
3.866853188E0,3.459481299E-1,4.960970879E-1,-2.460693359E0
3.871853188E0,2.951284051E-1,4.092056751E-1,-2.534732819E0
3.876853188E0,3.070344925E-1,3.084380627E-1,-2.644864559E0
3.881853188E0,1.447402239E-1,3.135268688E-1,-2.562649250E0
3.886853188E0,1.838626862E-1,3.657793999E-1,-2.507280827E0
3.891853188E0,2.488557249E-1,3.833384514E-1,-2.475200176E0
3.896853188E0,3.599323630E-1,3.492136002E-1,-2.510916233E0
3.901853188E0,4.451090693E-1,1.556644440E-1,-2.391620636E0
3.906853188E0,5.773193836E-1,4.118132591E-2,-2.250907898E0
3.911853188E0,4.793220758E-1,1.197836399E-1,-2.153243542E0
3.916853188E0,3.317323029E-1,1.376459599E-1,-2.060718060E0
3.921853188E0,3.935933411E-1,8.310317993E-2,-1.975414753E0
3.926853188E0,4.478931427E-1,1.389899254E-1,-1.896429062E0
3.931853188E0,3.615288138E-1,2.396440506E-1,-1.769209385E0
3.936853188E0,1.666880101E-1,3.491597176E-1,-1.554269791E0
3.941853188E0,3.658756614E-2,4.661712646E-1,-1.371126175E0
3.946853188E0,-4.662883282E-2,5.671536922E-1,-1.265110970E0
3.951853188E0,-1.216638684E-1,6.405427456E-1,-1.153194427E0
3.956853188E0,-1.782193780E-1,6.908879280E-1,-9.670591354E-1
3.961853188E0,-1.568024755E-1,6.974482536E-1,-7.991151810E-1
3.966853188E0,-6.967276335E-2,5.529575348E-1,-7.734289169E-1
3.971853188E0,-1.853049397E-1,5.755009651E-1,-6.234970093E-1
3.976853188E0,-2.653476000E-1,7.379634380E-1,-3.548021317E-1
3.981853188E0,-3.733724356E-1,8.963518143E-1,-2.866668701E-1
3.986853188E0,-3.344777226E-1,9.417064190E-1,-2.581233978E-1
3.991853188E0,-2.772084475E-1,8.921318054E-1,-2.232446671E-1
3.996853188E0,-1.979192346E-1,7.748234272E-1,-8.157062531E-2
4.001853188E0,-1.050844938E-1,6.541700363E-1,6.493186951E-2
4.006853188E0,-6.689429283E-2,5.495855808E-1,9.491252899E-2
4.011853188E0,8.376448601E-2,3.788743019E-1,1.378993988E-1
4.016853188E0,1.415614188E-1,2.946929932E-1,4.599189758E-2
4.021853188E0,2.675319612E-1,2.264153957E-1,1.476764679E-2
4.026853188E0,4.178999066E-1,9.034442902E-2,7.369709015E-2
4.031853188E0,4.282361269E-1,9.693241119E-2,8.431816101E-2
4.036853188E0,2.915772498E-1,1.158626080E-1,1.875829697E-1
4.041853188E0,1.265873611E-1,1.754271984E-1,4.838514328E-1
4.046853188E0,-8.813442290E-2,3.868081570E-1,7.082366943E-1
4.051853188E0,-1.724684536E-1,3.461210728E-1,7.442169189E-1
4.056853188E0,-4.057771713E-2,3.646070957E-1,8.386697769E-1
4.061853188E0,-5.530533940E-2,3.744196892E-1,1.031077385E0
4.066853188E0,-2.091321498E-1,4.442024231E-1,1.205791473E0
4.071853188E0,-2.597081661E-1,6.015157700E-1,1.238383293E0
4.076853188E0,-2.008091658E-1,5.668685436E-1,9.940242767E-1
4.081853188E0,-4.863202944E-2,4.306650162E-1,9.338960648E-1
4.086853188E0,1.825697124E-1,3.827712536E-1,1.045088768E0
4.091853188E0,3.887450695E-1,3.953254223E-1,1.066720963E0
4.096853188E0,4.241245985E-1,4.867618084E-1,9.781055450E-1
4.101853188E0,4.302458763E-1,5.162515640E-1,9.449033737E-1
4.106853188E0,5.533429384E-1,4.802961349E-1,1.120788574E0
4.111853188E0,7.152649164E-1,3.360183239E-1,1.314799309E0
4.116853188E0,7.814170122E-1,2.662892342E-1,1.462028503E0
4.121853188E0,8.150516748E-1,2.884845734E-1,1.506959915E0
4.126853188E0,8.180189729E-1,5.677268505E-1,1.575445175E0
4.131853188E0,8.322459459E-1,1.945762634E-1,1.790659904E0
4.136853188E0,1.011010408E0,-9.066975117E-2,2.189080238E0
4.141853188E0,9.767614603E-1,-3.957700729E-2,2.537616730E0
4.146853188E0,7.125569582E-1,5.602860451E-1,2.390847206E0
4.151853188E0,7.717439532E-1,5.572822094E-1,2.953643799E0
4.156853188E0,6.494618654E-1,4.784938097E-1,3.037371635E0
4.161853188E0,5.482072830E-1,3.323854208E-1,3.398630142E0
4.166853188E0,4.070213437E-1,4.569194317E-1,3.429666519E0
4.171853188E0,5.135142803E-1,5.127537251E-1,3.431872368E0
4.176853188E0,7.208838463E-1,4.765491486E-1,3.242115974E0
4.181853188E0,9.535182714E-1,4.011384249E-1,2.992791176E0
4.186853188E0,1.067868710E0,2.883338928E-1,2.698945999E0
4.191853188E0,1.235969305E0,1.992594004E-1,2.351099014E0
4.196853188E0,1.271275043E0,3.141260147E-2,1.970560074E0
4.201853188E0,1.421731472E0,-3.121542931E-2,1.511639595E0
4.206853188E0,1.730040550E0,-1.665076017E-1,1.014249802E0
4.211853188E0,1.942023158E0,-3.777118921E-1,6.271190643E-1
4.216853188E0,1.951776743E0,-4.946497679E-1,3.684682846E-1
4.221853188E0,2.146169424E0,-6.239253283E-1,8.947277069E-2
4.226853188E0,2.149085522E0,-7.099221945E-1,-6.340885162E-2
4.231853188E0,2.217223167E0,-7.608004808E-1,-1.078882217E-1
4.236853188E0,2.209433556E0,-7.805651426E-1,-1.421298981E-1
4.241853188E0,2.044992685E0,-7.215704918E-1,-8.150672913E-2
4.246853188E0,2.039709806E0,-6.456921101E-1,-1.333045959E-2
4.251853188E0,1.910550594E0,-6.270915270E-1,6.310272217E-2
4.256853188E0,1.698598981E0,-6.177843809E-1,2.107477188E-1
4.261853188E0,1.408659935E0,-6.237223148E-1,4.421377182E-1
4.266853188E0,1.186262012E0,-6.750842333E-1,6.478595734E-1
4.271853188E0,9.371439219E-1,-5.337690115E-1,6.761646271E-1
4.276853188E0,8.486642838E-1,-4.654620886E-1,6.911792755E-1
4.281853188E0,7.943120003E-1,-4.080311060E-1,7.499485016E-1
4.286853188E0,7.260085344E-1,-3.987684250E-1,7.915077209E-1
4.291853188E0,5.041961670E-1,-3.313640356E-1,8.548488617E-1
4.296853188E0,2.694544792E-1,-2.302434444E-1,9.204711914E-1
4.301853188E0,1.562886238E-1,-7.829809189E-2,8.312940598E-1
4.306853188E0,1.140928268E-1,-7.169342041E-2,6.750478745E-1
4.311853188E0,-5.318522453E-2,-8.325958252E-2,4.452104568E-1
4.316853188E0,-2.959811091E-1,-6.900656223E-2,1.069002151E-1
4.321853188E0,-1.563913822E-1,-1.067901850E-1,-3.275918961E-1
4.326853188E0,-5.285692215E-2,-2.616890669E-1,-6.986579895E-1
4.331853188E0,-9.395968914E-2,-3.557434082E-1,-1.004638672E0
4.336853188E0,1.012980938E-2,-4.089263678E-1,-1.358553886E0
4.341853188E0,1.549886465E-1,-3.954901695E-1,-1.760354042E0
4.346853188E0,3.911496401E-1,-3.825207949E-1,-2.088705540E0
4.351853188E0,6.026173830E-1,-5.724190474E-1,-2.209832668E0
4.356853188E0,6.095696688E-1,-7.084457874E-1,-2.250002384E0
4.361853188E0,4.818483591E-1,-6.234295368E-1,-2.313962936E0
4.366853188E0,5.648543835E-1,-6.737772226E-1,-2.258884430E0
4.371853188E0,5.651936531E-1,-5.659598708E-1,-2.226819515E0
4.376853188E0,6.595659256E-1,-5.165019631E-1,-2.163095474E0
4.381853188E0,5.882651806E-1,-3.745764494E-1,-2.052176952E0
4.386853188E0,4.997967482E-1,-3.043788671E-1,-1.953302383E0
4.391853188E0,4.905112982E-1,-2.669047117E-1,-1.901436329E0
4.396853188E0,7.851042151E-1,-3.772186041E-1,-1.654797554E0
4.401853188E0,9.827291369E-1,-3.199092150E-1,-1.426877022E0
4.406853188E0,9.776925445E-1,-9.380912781E-2,-1.418498993E0
4.411853188E0,9.745444655E-1,6.633472443E-2,-1.533319473E0
4.416853188E0,5.941591263E-1,1.798175573E-1,-1.446083069E0
4.421853188E0,4.196210504E-1,1.946642399E-1,-1.667464256E0
4.426853188E0,2.406640053E-1,1.824667454E-1,-1.816893101E0
4.431853188E0,1.766123772E-1,1.860381365E-1,-1.982132435E0
4.436853188E0,-1.457488537E-2,4.251937866E-1,-2.138228893E0
4.441853188E0,3.203672171E-2,2.995454073E-1,-2.546823025E0
4.446853188E0,-1.567035913E-1,5.427548885E-1,-2.839469433E0
4.451853188E0,-7.922708988E-3,5.478215218E-1,-3.004094601E0
4.456853188E0,-5.870479345E-2,4.670331478E-1,-3.192718983E0
4.461853188E0,-9.373921156E-2,3.707284927E-1,-3.414734364E0
4.466853188E0,-1.900357008E-1,4.018790722E-1,-3.481839657E0
4.471853188E0,-6.954902411E-2,3.938478231E-1,-3.611048222E0
4.476853188E0,1.752454042E-2,4.124810696E-1,-3.573884964E0
4.481853188E0,1.171535254E-1,3.648554087E-1,-3.501229286E0
4.486853188E0,8.005553484E-2,3.022445440E-1,-3.282054424E0
4.491853188E0,8.426481485E-2,2.256542444E-1,-3.180219650E0
4.496853188E0,7.131320238E-2,2.525452375E-1,-2.888171196E0
4.501853188E0,6.553733349E-2,3.320641518E-1,-2.623132706E0
4.506853188E0,8.196800947E-2,3.782010078E-1,-2.297094822E0
4.511853188E0,3.316527605E-2,4.173989296E-1,-1.951337814E0
4.516853188E0,-3.106790781E-2,5.032240152E-1,-1.688259125E0
4.521853188E0,-7.511717081E-2,5.308843851E-1,-1.514540672E0
4.526853188E0,-6.770181656E-2,4.984868765E-1,-1.330613136E0
4.531853188E0,-6.671333313E-2,4.958300591E-1,-1.232050896E0
4.536853188E0,-7.802051306E-2,5.224655867E-1,-1.132363319E0
4.541853188E0,-2.939462662E-3,4.841278791E-1,-1.134807587E0
4.546853188E0,-2.157056332E-2,4.786626101E-1,-1.167668343E0
4.551853188E0,6.950223446E-2,3.814126253E-1,-1.197941780E0
4.556853188E0,-3.655731678E-2,3.537626266E-1,-1.065923691E0
4.561853188E0,-2.821472287E-2,2.944635153E-1,-1.160849571E0
4.566853188E0,8.794391155E-2,3.432759047E-1,-1.066385269E0
4.571853188E0,-1.851735711E-1,1.765533686E-1,-1.026576996E0
4.576853188E0,-1.608049423E-1,8.624160290E-2,-1.142211914E0
4.581853188E0,8.902686834E-2,2.343082428E-2,-1.107886314E0
4.586853188E0,2.538362145E-2,8.022594452E-2,-9.253501892E-1
4.591853188E0,1.482167840E-2,7.108271122E-2,-9.235095978E-1
4.596853188E0,-1.683011055E-1,6.633627415E-2,-8.120555878E-1
4.601853188E0,-2.759426832E-1,1.323246956E-2,-8.990201950E-1
4.606853188E0,-3.780921102E-1,-1.001286507E-2,-8.704719543E-1
4.611853188E0,-5.454937220E-1,-1.574277878E-3,-9.488382339E-1
4.616853188E0,-6.678140163E-1,-3.741240501E-2,-9.427747726E-1
4.621853188E0,-7.849168777E-1,-3.541505337E-2,-9.625272751E-1
4.626853188E0,-1.112884998E0,2.083654404E-1,-8.024911880E-1
4.631853188E0,-1.243426204E0,4.651539326E-1,-8.515186310E-1
4.636853188E0,-1.547519684E0,7.290803194E-1,-4.849815369E-1
4.641853188E0,-1.533682466E0,6.854671240E-1,-4.422998428E-1
4.646853188E0,-1.565942645E0,6.712914705E-1,-6.816005707E-2
4.651853188E0,-1.614039898E0,6.203727722E-1,2.840757370E-1
4.656853188E0,-1.061688185E0,9.869253635E-1,9.684715271E-1
4.661853188E0,-1.580522180E0,8.513094187E-1,1.494566917E0
4.666853188E0,-1.879113436E0,5.831556320E-1,1.778109550E0
4.671853188E0,-2.040868282E0,3.400847912E-1,2.074809074E0
4.676853188E0,-2.073312998E0,2.057354450E-1,2.490839958E0
4.681853188E0,-1.783280611E0,1.051756144E-1,3.068392754E0
4.686853188E0,-1.957893610E0,5.878031254E-2,3.334337234E0
4.691853188E0,-2.120803595E0,1.115599871E-1,3.566708565E0
4.696853188E0,-2.358886242E0,3.133399487E-1,3.755857468E0
4.701853188E0,-2.601284027E0,6.292889118E-1,3.847422600E0
4.706853188E0,-2.786191702E0,1.079602122E0,3.721391678E0
4.711853188E0,-2.712710619E0,1.500261068E0,3.145807266E0
4.716853188E0,-2.486832380E0,1.455153942E0,3.280730247E0
4.721853188E0,-1.976735353E0,1.164384127E0,3.432983398E0
4.726853188E0,-1.094921470E0,7.568999529E-1,3.596134186E0
4.731853188E0,9.533336759E-2,6.561183929E-1,3.927623749E0
4.736853188E0,4.548265338E-1,3.567768335E-1,4.419478416E0
4.741853188E0,5.895411372E-1,1.697031260E-1,4.879167557E0
4.746853188E0,6.083384752E-1,6.859242916E-2,5.264793396E0
4.751853188E0,5.730100274E-1,-2.577626705E-2,5.492405891E0
4.756853188E0,5.053194761E-1,-1.713237762E-1,5.575383186E0
4.761853188E0,4.281501174E-1,-3.217512965E-1,5.502159119E0
4.766853188E0,3.384311795E-1,-4.660819769E-1,5.261891365E0
4.771853188E0,2.049942762E-1,-5.401450396E-1,4.852543831E0
4.776853188E0,4.635614157E-2,-5.038508773E-1,4.348422050E0
4.781853188E0,-1.418756098E-1,-4.119043946E-1,3.713773727E0
4.786853188E0,-3.691829741E-1,-3.606837392E-1,3.094237328E0
4.791853188E0,-5.219329596E-1,-3.185396194E-1,2.458006859E0
4.796853188E0,-6.020773053E-1,-2.673364878E-1,1.815939903E0
4.801853188E0,-6.973385215E-1,-2.404973507E-1,1.187583923E0
4.806853188E0,-7.697099447E-1,-2.516433001E-1,6.351938248E-1
4.811853188E0,-8.435627222E-1,-2.483958006E-1,1.577167511E-1
4.816853188E0,-9.593487978E-1,-2.453080416E-1,-2.138929367E-1
4.821853188E0,-1.061518669E0,-2.370146513E-1,-5.313425064E-1
4.826853188E0,-1.098571539E0,-2.172346115E-1,-7.302083969E-1
4.831853188E0,-1.083336592E0,-2.005721331E-1,-8.800897598E-1
4.836853188E0,-1.045728087E0,-2.498188019E-1,-9.175186157E-1
4.841853188E0,-1.286469936E0,-1.594539881E-1,-8.811006546E-1
4.846853188E0,-1.498254061E0,-7.817375660E-2,-8.120498657E-1
4.851853188E0,-1.514079690E0,-1.072509289E-1,-6.451711655E-1
4.856853188E0,-1.380937099E0,-2.351566553E-1,-4.398803711E-1
4.861853188E0,-1.237644434E0,-3.813829422E-1,-2.714195251E-1
4.866853188E0,-1.128393531E0,-4.947730303E-1,-7.451248169E-2
4.871853188E0,-1.089351296E0,-5.566343665E-1,1.317386627E-1
4.876853188E0,-1.089841008E0,-5.938556790E-1,3.332433701E-1
4.881853188E0,-1.116012096E0,-5.590758324E-1,5.749864578E-1
4.886853188E0,-1.149404526E0,-5.245062709E-1,7.948637009E-1
4.891853188E0,-1.185958743E0,-4.989119768E-1,1.002287865E0
4.896853188E0,-1.236046433E0,-4.756319523E-1,1.156970024E0
4.901853188E0,-1.309939623E0,-4.358124733E-1,1.242631912E0
4.906853188E0,-1.412842870E0,-4.119329453E-1,1.268836021E0
4.911853188E0,-1.521707296E0,-3.701481819E-1,1.183237076E0
4.916853188E0,-1.620059490E0,-3.224352598E-1,1.090239525E0
4.921853188E0,-1.735593200E0,-2.925642729E-1,9.479894638E-1
4.926853188E0,-1.824055433E0,-2.285647988E-1,7.652282715E-1
4.931853188E0,-1.860873938E0,-1.915590167E-1,5.975475311E-1
4.936853188E0,-1.837796092E0,-1.259281635E-1,4.273653030E-1
4.941853188E0,-1.776289344E0,-7.891565561E-2,2.631006241E-1
4.946853188E0,-1.694143057E0,-2.655184269E-2,1.181735992E-1
4.951853188E0,-1.558866382E0,1.863324642E-2,-1.667022705E-3
4.956853188E0,-1.408162832E0,8.132755756E-2,-1.458511353E-1
4.961853188E0,-1.261219740E0,1.209417582E-1,-2.944707870E-1
4.966853188E0,-1.166945934E0,1.392685175E-1,-4.922523499E-1
4.971853188E0,-1.091531754E0,1.455820203E-1,-7.042512894E-1
4.976853188E0,-1.052960873E0,1.590616703E-1,-9.191560745E-1
4.981853188E0,-1.036822915E0,1.686749458E-1,-1.105133057E0
4.986853188E0,-1.008362770E0,1.608650684E-1,-1.263689995E0
4.991853188E0,-9.604108930E-1,1.624181271E-1,-1.418074608E0
4.996853188E0,-9.051647186E-1,1.793013811E-1,-1.574542999E0
5.001853188E0,-8.264487982E-1,1.785638332E-1,-1.686306000E0
5.006853188E0,-7.480766177E-1,1.867471933E-1,-1.817764282E0
5.011853188E0,-6.847330332E-1,1.918876171E-1,-1.920111179E0
5.016853188E0,-6.082314849E-1,2.109912634E-1,-1.978394508E0
5.021853188E0,-5.075171590E-1,2.001556158E-1,-2.004135609E0
5.026853188E0,-3.511290848E-1,2.324793339E-1,-1.970781803E0
5.031853188E0,-1.798836887E-1,2.498127222E-1,-1.902720928E0
5.036853188E0,2.427548170E-3,2.524214983E-1,-1.801866531E0
5.041853188E0,1.454903185E-1,2.682632208E-1,-1.699748993E0
5.046853188E0,2.712496519E-1,2.798187733E-1,-1.617926598E0
5.051853188E0,4.180148840E-1,2.913688421E-1,-1.482020378E0
5.056853188E0,5.597041845E-1,2.557030916E-1,-1.383406639E0
5.061853188E0,6.980408430E-1,1.943956614E-1,-1.297000885E0
5.066853188E0,8.329602480E-1,1.291508675E-1,-1.228625298E0
5.071853188E0,9.309440851E-1,8.617997169E-3,-1.226049423E0
5.076853188E0,9.743363261E-1,-1.103831530E-1,-1.216328621E0
5.081853188E0,9.664021134E-1,-2.145370245E-1,-1.217404366E0
5.086853188E0,9.098873734E-1,-3.158454895E-1,-1.216680527E0
5.091853188E0,8.493092656E-1,-4.079874754E-1,-1.232266426E0
5.096853188E0,7.680748701E-1,-5.047924519E-1,-1.264429092E0
5.101853188E0,6.949593425E-1,-5.706393719E-1,-1.249761581E0
5.106853188E0,6.681163311E-1,-6.402099133E-1,-1.240434647E0
5.111853188E0,6.304779649E-1,-7.032369375E-1,-1.255970955E0
5.116853188E0,6.369867921E-1,-7.595098019E-1,-1.245588303E0
5.121853188E0,6.576001048E-1,-8.044037819E-1,-1.139103889E0
5.126853188E0,6.507735252E-1,-8.474334478E-1,-1.015081406E0
5.131853188E0,6.763722897E-1,-9.286798239E-1,-8.762722015E-1
5.136853188E0,6.696960330E-1,-1.008430719E0,-7.760782242E-1
5.141853188E0,6.832972169E-1,-1.080748916E0,-6.961107254E-1
5.146853188E0,7.329650521E-1,-1.164165258E0,-6.082496643E-1
5.151853188E0,8.203687072E-1,-1.244974136E0,-5.577545166E-1
5.156853188E0,8.860725164E-1,-1.338067532E0,-5.152654648E-1
5.161853188E0,9.461706877E-1,-1.386801243E0,-5.423774719E-1
5.166853188E0,9.970921278E-1,-1.390431285E0,-5.912981033E-1
5.171853188E0,1.059110522E0,-1.354986668E0,-6.859855652E-1
5.176853188E0,1.093161821E0,-1.298348427E0,-7.729845047E-1
5.181853188E0,1.106184959E0,-1.235281467E0,-8.449268341E-1
5.186853188E0,1.064534664E0,-1.135213494E0,-9.287366867E-1
5.191853188E0,9.767677784E-1,-1.057995796E0,-9.904651642E-1
5.196853188E0,8.622883558E-1,-9.677807093E-1,-9.710531235E-1
5.201853188E0,7.303075790E-1,-9.089663029E-1,-9.465818405E-1
5.206853188E0,5.571882129E-1,-8.679955006E-1,-8.802881241E-1
5.211853188E0,3.758917451E-1,-8.132317066E-1,-7.780342102E-1
5.216853188E0,1.973013878E-1,-7.650183439E-1,-6.542959213E-1
5.221853188E0,4.933196306E-2,-7.582668066E-1,-5.035572052E-1
5.226853188E0,-7.634830475E-2,-7.546229362E-1,-3.701562881E-1
5.231853188E0,-1.773412824E-1,-7.405567169E-1,-1.890497208E-1
5.236853188E0,-2.019775510E-1,-7.245436907E-1,-1.327514648E-3
5.241853188E0,-1.585054398E-1,-7.053501606E-1,1.762495041E-1
5.246853188E0,-8.712595701E-2,-6.955990791E-1,2.988510132E-1
5.251853188E0,9.074807167E-3,-6.755290031E-1,3.990840912E-1
5.256853188E0,1.285703778E-1,-6.215299368E-1,4.930419922E-1
5.261853188E0,2.799203396E-1,-5.197451115E-1,6.039667130E-1
5.266853188E0,4.476674795E-1,-3.913753033E-1,7.688493729E-1
5.271853188E0,6.233074069E-1,-2.538567781E-1,9.783172607E-1
5.276853188E0,8.217092156E-1,-1.192243099E-1,1.221148491E0
5.281853188E0,1.023277164E0,-1.124441624E-2,1.456831932E0
5.286853188E0,1.209667206E0,5.791759491E-2,1.674242020E0
5.291853188E0,1.327090740E0,7.386946678E-2,1.845578194E0
5.296853188E0,1.367185593E0,8.860683441E-2,2.063261032E0
5.301853188E0,1.273637295E0,8.029890060E-2,2.331535339E0
5.306853188E0,1.078260541E0,5.244565010E-2,2.603490829E0
5.311853188E0,8.398112655E-1,-3.019034863E-2,2.825096130E0
5.316853188E0,5.575566888E-1,-1.694265604E-1,3.016057014E0
5.321853188E0,2.802419662E-1,-3.520615101E-1,3.097693443E0
5.326853188E0,5.491298437E-2,-5.385366082E-1,3.119361877E0
5.331853188E0,-1.048423052E-1,-6.897003651E-1,3.111125946E0
5.336853188E0,-1.925981641E-1,-7.925341725E-1,3.057327271E0
5.341853188E0,-2.528570890E-1,-8.239549994E-1,2.963934898E0
5.346853188E0,-3.215179145E-1,-8.343406320E-1,2.831733704E0
5.351853188E0,-3.825326264E-1,-8.322225809E-1,2.666541100E0
5.356853188E0,-4.491361678E-1,-8.194486499E-1,2.493317604E0
5.361853188E0,-5.223441124E-1,-8.113597631E-1,2.280912399E0
5.366853188E0,-5.731444955E-1,-7.516263127E-1,2.077705383E0
5.371853188E0,-5.663402677E-1,-6.742754579E-1,1.896283150E0
5.376853188E0,-5.211409330E-1,-5.708842874E-1,1.693441391E0
5.381853188E0,-4.157357812E-1,-4.427347183E-1,1.492060661E0
5.386853188E0,-2.702345848E-1,-3.373615742E-1,1.286603928E0
5.391853188E0,-8.163839579E-2,-2.546561956E-1,1.091120720E0
5.396853188E0,1.311598420E-1,-1.554142237E-1,9.450798035E-1
5.401853188E0,3.778524399E-1,-7.619166374E-2,7.926654816E-1
5.406853188E0,6.076234579E-1,7.341504097E-3,6.612043381E-1
5.411853188E0,8.047808409E-1,1.020207405E-1,5.563411713E-1
5.416853188E0,9.676151872E-1,1.752402782E-1,4.369783401E-1
5.421853188E0,1.085790396E0,2.362334728E-1,2.933731079E-1
5.426853188E0,1.152750969E0,2.727462053E-1,1.221303940E-1
5.431853188E0,1.147616863E0,2.835189104E-1,-6.124687195E-2
5.436853188E0,1.092197418E0,2.564762831E-1,-2.625875473E-1
5.441853188E0,9.688581824E-1,2.105168104E-1,-4.708032608E-1
5.446853188E0,7.755988836E-1,1.634286642E-1,-6.306266785E-1
5.451853188E0,5.573799610E-1,1.276873350E-1,-7.920370102E-1
5.456853188E0,3.345013261E-1,7.733631134E-2,-9.830474854E-1
5.461853188E0,1.124944687E-1,1.728880405E-2,-1.134005547E0
5.466853188E0,-4.926782846E-2,-2.117991447E-3,-1.279683113E0
5.471853188E0,-1.706560552E-1,-2.244210243E-2,-1.405542374E0
5.476853188E0,-2.740108371E-1,-2.882957458E-3,-1.518830299E0
5.481853188E0,-3.318349719E-1,3.551220894E-2,-1.610857010E0
5.486853188E0,-3.401509523E-1,1.060047150E-1,-1.689540863E0
5.491853188E0,-3.299466968E-1,1.959782839E-1,-1.784605026E0
5.496853188E0,-3.271155059E-1,2.845077515E-1,-1.873910427E0
5.501853188E0,-3.033806980E-1,3.907902241E-1,-1.950684547E0
5.506853188E0,-2.983471751E-1,4.952986240E-1,-2.014743328E0
5.511853188E0,-2.645162940E-1,5.733145475E-1,-2.077263355E0
5.516853188E0,-2.167410851E-1,6.320962906E-1,-2.122896671E0
5.521853188E0,-1.671468914E-1,6.889711618E-1,-2.199316978E0
5.526853188E0,-1.096421182E-1,7.430199385E-1,-2.271573067E0
5.531853188E0,-6.243947148E-2,7.715291977E-1,-2.379221439E0
5.536853188E0,-1.989203691E-2,7.720781565E-1,-2.448211193E0
5.541853188E0,8.029460907E-3,7.704310417E-1,-2.519379616E0
5.546853188E0,9.878993034E-3,7.711679935E-1,-2.608994007E0
5.551853188E0,4.557132721E-3,7.410088778E-1,-2.700417995E0
5.556853188E0,-3.260633349E-2,6.970689297E-1,-2.791326523E0
5.561853188E0,-8.592379093E-2,6.791921854E-1,-2.848221779E0
5.566853188E0,-1.126618683E-1,6.794271469E-1,-2.893220425E0
5.571853188E0,-1.469738036E-1,6.709958315E-1,-2.933820724E0
5.576853188E0,-1.612588465E-1,6.705124378E-1,-2.986752510E0
5.581853188E0,-1.823095232E-1,6.573327780E-1,-3.005164623E0
5.586853188E0,-2.234527469E-1,6.540020704E-1,-3.000278473E0
5.591853188E0,-2.759953737E-1,6.595003605E-1,-2.972541809E0
5.596853188E0,-3.101151586E-1,6.456103325E-1,-2.935560226E0
5.601853188E0,-3.306366503E-1,6.403167248E-1,-2.885365486E0
5.606853188E0,-3.515152931E-1,6.363793612E-1,-2.796462059E0
5.611853188E0,-3.553209603E-1,6.298555136E-1,-2.659013271E0
5.616853188E0,-3.690502942E-1,6.193847656E-1,-2.518718243E0
5.621853188E0,-4.123377204E-1,6.206303835E-1,-2.341674328E0
5.626853188E0,-4.549636543E-1,6.191333532E-1,-2.137901306E0
5.631853188E0,-5.001919270E-1,6.165287495E-1,-1.914252758E0
5.636853188E0,-5.746231675E-1,6.163371801E-1,-1.708867073E0
5.641853188E0,-6.309072375E-1,6.167201996E-1,-1.499857903E0
5.646853188E0,-6.903349161E-1,6.162354946E-1,-1.308778763E0
5.651853188E0,-7.533195615E-1,6.207430363E-1,-1.117043495E0
5.656853188E0,-7.612279654E-1,6.331338882E-1,-9.074878693E-1
5.661853188E0,-8.079690933E-1,6.417870522E-1,-7.224273682E-1
5.666853188E0,-8.359369636E-1,6.206074953E-1,-5.279483795E-1
5.671853188E0,-8.757041693E-1,6.133532524E-1,-3.397951126E-1
5.676853188E0,-9.228019714E-1,5.708103180E-1,-1.812086105E-1
5.681853188E0,-9.958691597E-1,5.253474712E-1,-3.942584991E-2
5.686853188E0,-1.079451323E0,5.046870708E-1,8.019542694E-2
5.691853188E0,-1.169725895E0,4.562975168E-1,1.966772079E-1
5.696853188E0,-1.224019647E0,4.445391893E-1,3.114042282E-1
5.701853188E0,-1.265500546E0,4.348983765E-1,4.127531052E-1
5.706853188E0,-1.325325608E0,4.043724537E-1,5.053110123E-1
5.711853188E0,-1.396595836E0,3.997365236E-1,5.597276688E-1
5.716853188E0,-1.451445699E0,3.961460590E-1,5.981273651E-1
5.721853188E0,-1.505685687E0,3.962620497E-1,6.031103134E-1
5.726853188E0,-1.567091465E0,4.231145382E-1,6.043796539E-1
5.731853188E0,-1.655251980E0,4.529320002E-1,6.307659149E-1
5.736853188E0,-1.745789528E0,4.799652100E-1,6.396312714E-1
5.741853188E0,-1.852932930E0,5.019103289E-1,6.514320374E-1
5.746853188E0,-1.948513508E0,5.205771923E-1,6.865520477E-1
5.751853188E0,-2.022770882E0,5.407851934E-1,7.549009323E-1
5.756853188E0,-2.061672211E0,5.600293875E-1,8.498659134E-1
5.761853188E0,-2.077374935E0,5.300160646E-1,9.439163208E-1
5.766853188E0,-2.104927063E0,5.027456284E-1,1.042276382E0
5.771853188E0,-2.133340597E0,4.644180536E-1,1.101688385E0
5.776853188E0,-2.203220844E0,4.285514355E-1,1.155807495E0
5.781853188E0,-2.340648651E0,3.853642941E-1,1.222461700E0
5.786853188E0,-2.528198957E0,3.510618210E-1,1.204652786E0
5.791853188E0,-2.731102943E0,3.301631212E-1,1.204201698E0
5.796853188E0,-2.981537580E0,3.006278276E-1,1.200236320E0
5.801853188E0,-3.238413572E0,2.630138397E-1,1.193652153E0
5.806853188E0,-3.463442326E0,2.380868196E-1,1.254754066E0
5.811853188E0,-3.638809681E0,2.234342098E-1,1.389788628E0
5.816853188E0,-3.714540958E0,2.339895964E-1,1.623003960E0
5.821853188E0,-3.683578253E0,2.546426058E-1,1.940188408E0
5.826853188E0,-3.561798334E0,2.613097429E-1,2.368456841E0
5.831853188E0,-3.340955734E0,2.640615702E-1,2.911253929E0
5.836853188E0,-3.016870737E0,1.910269260E-1,3.475017548E0
5.841853188E0,-2.654846668E0,6.976187229E-2,4.025394440E0
5.846853188E0,-2.264882326E0,-8.513462543E-2,4.547507286E0
5.851853188E0,-1.856849909E0,-2.798475027E-1,5.050570488E0
5.856853188E0,-1.449712992E0,-4.931887984E-1,5.419259071E0
5.861853188E0,-1.064138532E0,-7.136524916E-1,5.693161011E0
5.866853188E0,-7.317711115E-1,-9.230324030E-1,5.879398346E0
5.871853188E0,-4.311705828E-1,-1.076057196E0,5.952913284E0
5.876853188E0,-2.074059844E-1,-1.184952974E0,5.897737503E0
5.881853188E0,-3.878267109E-2,-1.265605211E0,5.731876373E0
5.886853188E0,4.977618158E-2,-1.314678907E0,5.473576546E0
5.891853188E0,8.712171018E-2,-1.313171625E0,5.162358284E0
5.896853188E0,1.000945419E-1,-1.272137761E0,4.778719902E0
5.901853188E0,1.026491821E-1,-1.209285498E0,4.294879913E0
5.906853188E0,8.091269433E-2,-1.132785916E0,3.806927681E0
5.911853188E0,7.529254258E-2,-1.053454638E0,3.291325569E0
5.916853188E0,9.242612123E-2,-9.812428355E-1,2.767560959E0
5.921853188E0,1.209139526E-1,-9.307677150E-1,2.248019218E0
5.926853188E0,1.708928645E-1,-8.819010258E-1,1.749814034E0
5.931853188E0,2.149779201E-1,-8.181036711E-1,1.277129173E0
5.936853188E0,2.370990217E-1,-7.693092227E-1,8.428659439E-1
5.941853188E0,2.627554536E-1,-7.041891813E-1,4.654645920E-1
5.946853188E0,2.568830550E-1,-6.215273738E-1,1.231098175E-1
5.951853188E0,2.360194921E-1,-5.529376268E-1,-1.504688263E-1
5.956853188E0,2.407702506E-1,-4.944627285E-1,-4.169645309E-1
5.961853188E0,2.712061703E-1,-4.254699945E-1,-6.182413101E-1
5.966853188E0,3.204667270E-1,-3.737372160E-1,-7.731170654E-1
5.971853188E0,3.873238862E-1,-3.369652033E-1,-9.330482483E-1
5.976853188E0,4.821523130E-1,-2.917736769E-1,-1.069775581E0
5.981853188E0,5.741017461E-1,-2.429851294E-1,-1.173329353E0
5.986853188E0,6.683557630E-1,-2.059787512E-1,-1.262284279E0
5.991853188E0,7.593520880E-1,-1.618312597E-1,-1.327292442E0
5.996853188E0,8.499127626E-1,-1.016592979E-1,-1.390274048E0
6.001853188E0,9.193167686E-1,-1.907169819E-2,-1.458518028E0
6.006853188E0,9.593805075E-1,5.749428272E-2,-1.533723831E0
6.011853188E0,9.729771614E-1,1.413651705E-1,-1.590603828E0
6.016853188E0,1.003390551E0,1.908782721E-1,-1.667474747E0
6.021853188E0,1.020550370E0,2.414828539E-1,-1.768764496E0
6.026853188E0,1.011832833E0,2.607227564E-1,-1.877912998E0
6.031853188E0,1.008321762E0,2.837023735E-1,-1.947224140E0
6.036853188E0,9.853059053E-1,3.378281593E-1,-1.977169514E0
6.041853188E0,9.523512721E-1,3.625185490E-1,-1.990983486E0
6.046853188E0,8.932109475E-1,3.720587492E-1,-1.982798576E0
6.051853188E0,7.996687293E-1,3.873580694E-1,-1.960784912E0
6.056853188E0,7.209796906E-1,3.872033358E-1,-1.937089443E0
6.061853188E0,6.629552841E-1,3.653750420E-1,-1.908922672E0
6.066853188E0,6.178459525E-1,3.313006163E-1,-1.890468597E0
6.071853188E0,5.811483264E-1,3.116608858E-1,-1.836210251E0
6.076853188E0,5.853228569E-1,2.671046257E-1,-1.801717758E0
6.081853188E0,5.590837598E-1,2.290525436E-1,-1.790015221E0
6.086853188E0,5.346972346E-1,2.111943960E-1,-1.774186134E0
6.091853188E0,5.124311447E-1,1.860709190E-1,-1.769594193E0
6.096853188E0,5.221384168E-1,1.643885374E-1,-1.760959625E0
6.101853188E0,5.690858960E-1,1.742645502E-1,-1.759541512E0
6.106853188E0,6.091661453E-1,1.747578382E-1,-1.754226685E0
6.111853188E0,6.275693178E-1,1.771603823E-1,-1.739081383E0
6.116853188E0,7.032594085E-1,1.657154560E-1,-1.704002380E0
6.121853188E0,8.763611317E-1,1.370632648E-1,-1.736669540E0
6.126853188E0,9.700702429E-1,1.061030626E-1,-1.743496895E0
6.131853188E0,1.012818336E0,7.599794865E-2,-1.748722076E0
6.136853188E0,1.035621166E0,5.922722816E-2,-1.806385994E0
6.141853188E0,1.031623125E0,3.260374069E-2,-1.865903378E0
6.146853188E0,9.983922243E-1,1.009857655E-2,-1.937440395E0
6.151853188E0,9.334574938E-1,-6.928443909E-3,-1.969786167E0
6.156853188E0,8.540264368E-1,-2.909779549E-2,-2.024647713E0
6.161853188E0,7.720990777E-1,-5.488622189E-2,-2.021497250E0
6.166853188E0,7.198616266E-1,-7.498347759E-2,-2.033924103E0
6.171853188E0,6.405792236E-1,-1.137629747E-1,-2.073919296E0
6.176853188E0,5.976010561E-1,-1.680440903E-1,-2.100591660E0
6.181853188E0,5.782350302E-1,-2.202166319E-1,-2.084730625E0
6.186853188E0,5.945792198E-1,-2.753572464E-1,-2.065205097E0
6.191853188E0,6.110259295E-1,-3.076937199E-1,-1.990762234E0
6.196853188E0,6.586244106E-1,-3.272405863E-1,-1.922260761E0
6.201853188E0,7.123708725E-1,-3.411055803E-1,-1.859261036E0
6.206853188E0,7.798104286E-1,-3.663897514E-1,-1.772601128E0
6.211853188E0,8.558372259E-1,-3.947305679E-1,-1.707013130E0
6.216853188E0,8.901652098E-1,-4.336397648E-1,-1.648859501E0
6.221853188E0,9.028939009E-1,-4.823458195E-1,-1.583202362E0
6.226853188E0,8.978275061E-1,-5.154184103E-1,-1.483279228E0
6.231853188E0,8.729392886E-1,-5.503926277E-1,-1.369097710E0
6.236853188E0,8.656674027E-1,-5.780912638E-1,-1.231562614E0
6.241853188E0,8.534455299E-1,-6.256213188E-1,-1.121344566E0
6.246853188E0,8.575890660E-1,-6.798211336E-1,-9.990863800E-1
6.251853188E0,8.281627893E-1,-7.507756948E-1,-8.452787399E-1
6.256853188E0,8.143253326E-1,-8.181427717E-1,-7.091293335E-1
6.261853188E0,8.089035749E-1,-8.887619972E-1,-5.553178787E-1
6.266853188E0,7.908890247E-1,-9.478813410E-1,-4.027242661E-1
6.271853188E0,7.482169867E-1,-9.731361866E-1,-2.972593307E-1
6.276853188E0,7.047309279E-1,-1.005199313E0,-2.143688202E-1
6.281853188E0,6.634312272E-1,-1.032819867E0,-1.328840256E-1
6.286853188E0,6.012893319E-1,-1.040857553E0,-7.653331757E-2
6.291853188E0,5.239415169E-1,-1.062374830E0,-1.950836182E-2
6.296853188E0,4.297455549E-1,-1.055314302E0,-1.980686188E-2
6.301853188E0,3.432191610E-1,-1.050844312E0,-2.220058441E-2
6.306853188E0,2.097405195E-1,-1.039681196E0,-6.221294403E-2
6.311853188E0,6.308037043E-2,-1.060221314E0,-8.749866486E-2
6.316853188E0,-1.123880744E-1,-1.072649956E0,-1.415548325E-1
6.321853188E0,-2.640243173E-1,-1.112044454E0,-2.115249634E-1
6.326853188E0,-4.362295866E-1,-1.139915466E0,-2.377214432E-1
6.331853188E0,-6.000820398E-1,-1.166774392E0,-2.387380600E-1
6.336853188E0,-7.309291363E-1,-1.190332770E0,-2.191648483E-1
6.341853188E0,-8.372954130E-1,-1.209884882E0,-1.653051376E-1
6.346853188E0,-9.397072196E-1,-1.274796128E0,-1.140012741E-1
6.351853188E0,-1.008955359E0,-1.311341643E0,-7.081127167E-2
6.356853188E0,-1.049541235E0,-1.337388396E0,-1.477241516E-3
6.361853188E0,-1.055704713E0,-1.319386840E0,1.329717636E-1
6.366853188E0,-1.025896311E0,-1.280491948E0,3.302373886E-1
6.371853188E0,-9.271319509E-1,-1.191777587E0,6.220836639E-1
6.376853188E0,-8.433746696E-1,-1.089181185E0,9.737052917E-1
6.381853188E0,-7.384659052E-1,-9.802876711E-1,1.398347855E0
6.386853188E0,-5.767315626E-1,-8.745869398E-1,1.883150101E0
6.391853188E0,-3.977380693E-1,-7.676237822E-1,2.361276627E0
6.396853188E0,-2.141798735E-1,-7.057234049E-1,2.822872162E0
6.401853188E0,-5.284494162E-2,-6.896878481E-1,3.265871048E0
6.406853188E0,1.060590148E-1,-6.903264523E-1,3.651071548E0
6.411853188E0,2.405928373E-1,-7.116805315E-1,3.973093987E0
6.416853188E0,3.675768375E-1,-7.745934725E-1,4.248208046E0
6.421853188E0,4.649160504E-1,-8.399727345E-1,4.450751305E0
6.426853188E0,4.826313853E-1,-8.929005861E-1,4.587848663E0
6.431853188E0,4.544295669E-1,-9.071456194E-1,4.652427673E0
6.436853188E0,3.946908712E-1,-8.930963278E-1,4.666079521E0
6.441853188E0,3.185324073E-1,-8.336602449E-1,4.610927582E0
6.446853188E0,3.117053509E-1,-7.637287378E-1,4.479935646E0
6.451853188E0,3.346200585E-1,-6.864255667E-1,4.265867233E0
6.456853188E0,3.794820905E-1,-6.036729813E-1,3.976183891E0
6.461853188E0,4.935322404E-1,-5.060176849E-1,3.658364296E0
6.466853188E0,6.086642742E-1,-3.949575424E-1,3.322326660E0
6.471853188E0,7.705892324E-1,-2.938562632E-1,3.030773163E0
6.476853188E0,9.475179911E-1,-1.650865078E-1,2.714574814E0
6.481853188E0,1.150526047E0,-6.212210655E-2,2.429969788E0
6.486853188E0,1.342228532E0,1.980173588E-2,2.146527290E0
6.491853188E0,1.492754459E0,1.116796732E-1,1.861860275E0
6.496853188E0,1.619194031E0,1.854052544E-1,1.592893600E0
6.501853188E0,1.709972739E0,2.632477283E-1,1.352264404E0
6.506853188E0,1.772087216E0,3.263618946E-1,1.130033493E0
6.511853188E0,1.765809894E0,3.907655478E-1,9.297809601E-1
6.516853188E0,1.730559945E0,4.729840755E-1,7.224302292E-1
6.521853188E0,1.703038692E0,5.454229116E-1,5.655736923E-1
6.526853188E0,1.649816275E0,6.097382307E-1,4.266834259E-1
6.531853188E0,1.568199873E0,6.603958607E-1,2.785282135E-1
6.536853188E0,1.461182117E0,7.043085098E-1,1.554412842E-1
6.541853188E0,1.347714901E0,7.194089890E-1,3.637218475E-2
6.546853188E0,1.241783619E0,7.404724360E-1,-7.097053528E-2
6.551853188E0,1.111015320E0,7.615807056E-1,-2.077894211E-1
6.556853188E0,9.615252018E-1,7.780417204E-1,-3.345527649E-1
6.561853188E0,8.105601072E-1,7.893081903E-1,-4.337539673E-1
6.566853188E0,6.858820915E-1,7.929908037E-1,-5.663337708E-1
6.571853188E0,5.663765669E-1,7.950055599E-1,-7.113304138E-1
6.576853188E0,4.395340383E-1,7.886035442E-1,-8.871202469E-1
6.581853188E0,3.098086119E-1,8.097938299E-1,-1.073246956E0
6.586853188E0,1.713384986E-1,7.968832254E-1,-1.237876892E0
6.591853188E0,4.978320748E-2,8.102658987E-1,-1.474330902E0
6.596853188E0,-2.025397867E-2,8.213115931E-1,-1.654654503E0
6.601853188E0,-2.310167253E-2,8.504985571E-1,-1.778297424E0
6.606853188E0,3.841240704E-2,8.624629974E-1,-1.905858040E0
6.611853188E0,1.325596124E-1,8.987312317E-1,-2.003232002E0
6.616853188E0,2.497163862E-1,8.938052654E-1,-2.083967209E0
6.621853188E0,3.777096272E-1,9.043464661E-1,-2.173022747E0
6.626853188E0,4.936704934E-1,9.249213934E-1,-2.266200542E0
6.631853188E0,6.023532152E-1,9.436525106E-1,-2.349549770E0
6.636853188E0,7.126339674E-1,9.743002653E-1,-2.385999203E0
6.641853188E0,8.170344830E-1,9.747459888E-1,-2.400368214E0
6.646853188E0,8.570724726E-1,9.648853540E-1,-2.433409214E0
6.651853188E0,9.818828106E-1,9.261007309E-1,-2.491267204E0
6.656853188E0,1.123077154E0,8.708852530E-1,-2.546319962E0
6.661853188E0,1.176154017E0,8.248751163E-1,-2.551102161E0
6.666853188E0,1.100736260E0,7.622475624E-1,-2.570131779E0
6.671853188E0,1.002342701E0,7.211928368E-1,-2.629109383E0
6.676853188E0,9.054784775E-1,6.675059795E-1,-2.744033813E0
6.681853188E0,8.160237670E-1,6.000862122E-1,-2.843893528E0
6.686853188E0,7.390108109E-1,5.435495377E-1,-2.911937714E0
6.691853188E0,6.815832853E-1,5.105552673E-1,-2.969765663E0
6.696853188E0,6.012179852E-1,4.638822079E-1,-2.988397121E0
6.701853188E0,5.215934515E-1,4.316542149E-1,-2.954559326E0
6.706853188E0,4.299703538E-1,4.079649448E-1,-2.901713848E0
6.711853188E0,3.770281374E-1,4.012234211E-1,-2.795000553E0
6.716853188E0,3.242549300E-1,3.876492977E-1,-2.675912857E0
6.721853188E0,2.979041338E-1,3.778789043E-1,-2.539716721E0
6.726853188E0,2.907544971E-1,3.416950703E-1,-2.397444725E0
6.731853188E0,2.877259851E-1,3.133497238E-1,-2.252118587E0
6.736853188E0,2.825803757E-1,3.189969063E-1,-2.057161808E0
6.741853188E0,2.809615731E-1,3.167891502E-1,-1.848961830E0
6.746853188E0,2.674378753E-1,3.067736626E-1,-1.655514240E0
6.751853188E0,2.286954522E-1,2.762246132E-1,-1.495821953E0
6.756853188E0,1.680694818E-1,2.085103989E-1,-1.332317352E0
6.761853188E0,9.618318081E-2,1.557230949E-1,-1.230053902E0
6.766853188E0,-3.593659401E-2,1.060326099E-1,-1.172897339E0
6.771853188E0,-1.752637625E-1,7.701230049E-2,-1.153056145E0
6.776853188E0,-3.096951842E-1,3.779292107E-2,-1.141325951E0
6.781853188E0,-4.314869642E-1,1.400876045E-2,-1.123501778E0
6.786853188E0,-5.589370728E-1,-1.590514183E-2,-1.116559029E0
6.791853188E0,-6.721924543E-1,-1.653790474E-2,-1.129472733E0
6.796853188E0,-7.929122448E-1,-2.364659309E-2,-1.115139008E0
6.801853188E0,-8.531295061E-1,-3.706550598E-2,-1.124342918E0
6.806853188E0,-8.223432302E-1,-4.862165451E-2,-1.047601700E0
6.811853188E0,-7.600243092E-1,-5.446577072E-2,-9.597253799E-1
6.816853188E0,-6.644049883E-1,-2.106332779E-2,-8.188276291E-1
6.821853188E0,-5.415952802E-1,1.892638206E-2,-6.735134125E-1
6.826853188E0,-3.585079312E-1,6.236672401E-2,-4.705076218E-1
6.831853188E0,-1.424592733E-1,6.857705116E-2,-2.520380020E-1
6.836853188E0,6.537854671E-2,9.160017967E-2,2.226352692E-2
6.841853188E0,3.146074414E-1,1.067802906E-1,2.783145905E-1
6.846853188E0,5.368494391E-1,1.312747002E-1,5.148687363E-1
6.851853188E0,6.971733570E-1,1.743783951E-1,6.874046326E-1
6.856853188E0,7.681956291E-1,2.311744690E-1,9.018259048E-1
6.861853188E0,7.925835252E-1,2.831130028E-1,1.113335609E0
6.866853188E0,8.185944557E-1,3.204092979E-1,1.260044098E0
6.871853188E0,8.286718726E-1,3.374214172E-1,1.400107384E0
6.876853188E0,7.603886724E-1,3.138320446E-1,1.496959686E0
6.881853188E0,6.666152477E-1,2.662289143E-1,1.488638878E0
6.886853188E0,4.070066810E-1,1.132800579E-1,1.389421463E0
6.891853188E0,6.359332800E-2,1.318253279E-1,1.340478897E0
6.896853188E0,-1.850324869E-1,2.826392651E-1,1.452198029E0
6.901853188E0,-3.948187232E-1,3.760662079E-1,1.686026573E0
6.906853188E0,-5.959246159E-1,3.083653450E-1,1.903745651E0
6.911853188E0,-5.088837743E-1,6.981277466E-2,1.888429642E0
6.916853188E0,-2.553261518E-1,-1.784119606E-1,1.918341637E0
6.921853188E0,-1.635717750E-1,-3.031244278E-1,2.067240715E0
6.926853188E0,-3.843799233E-1,-2.819161415E-1,2.273464203E0
6.931853188E0,-6.997588277E-1,-1.608875990E-1,2.442053795E0
6.936853188E0,-9.861270189E-1,-6.857144833E-2,2.589917183E0
6.941853188E0,-1.161422253E0,-7.879602909E-2,2.666349411E0
6.946853188E0,-1.149190784E0,-2.087273598E-1,2.656207085E0
6.951853188E0,-9.975416064E-1,-4.607832432E-1,2.508411407E0
6.956853188E0,-8.558130264E-1,-7.116799355E-1,2.329981804E0
6.961853188E0,-7.621977329E-1,-8.597276211E-1,2.087287903E0
6.966853188E0,-7.587344646E-1,-9.127619267E-1,1.887113571E0
6.971853188E0,-8.091280460E-1,-8.636577129E-1,1.761329651E0
6.976853188E0,-9.060621858E-1,-8.161685467E-1,1.624277115E0
6.981853188E0,-1.035635114E0,-7.557462454E-1,1.541634560E0
6.986853188E0,-1.106354237E0,-7.584054470E-1,1.407909393E0
6.991853188E0,-1.089003205E0,-7.889342308E-1,1.214528084E0
6.996853188E0,-1.062836289E0,-8.307024240E-1,1.104953766E0
7.001853188E0,-1.013219714E0,-8.598450422E-1,1.057088852E0
7.006853188E0,-9.032984376E-1,-8.144996166E-1,1.056603432E0
7.011853188E0,-8.484409451E-1,-7.439761162E-1,1.075017929E0
7.016853188E0,-8.769621253E-1,-6.892191172E-1,1.112435341E0
7.021853188E0,-9.406545758E-1,-6.787636280E-1,1.110165596E0
7.026853188E0,-9.756717682E-1,-6.707538366E-1,1.221023560E0
7.031853188E0,-1.039868951E0,-6.798297167E-1,1.403525352E0
7.036853188E0,-1.107537866E0,-6.963684559E-1,1.575845718E0
7.041853188E0,-1.121301651E0,-7.654182911E-1,1.730834007E0
7.046853188E0,-1.138775468E0,-8.103737831E-1,1.808574677E0
7.051853188E0,-1.140016556E0,-8.849767447E-1,1.785088539E0
7.056853188E0,-1.108884335E0,-9.131296277E-1,1.726964951E0
7.061853188E0,-1.473262429E0,-6.752797365E-1,1.587901115E0
7.066853188E0,-1.782887220E0,-4.782251120E-1,1.280107498E0
7.071853188E0,-1.854312897E0,-4.978764057E-1,1.036370277E0
7.076853188E0,-1.779016733E0,-6.272277236E-1,7.691411972E-1
7.081853188E0,-1.572614431E0,-7.814111114E-1,4.860076904E-1
7.086853188E0,-1.410253406E0,-8.348482251E-1,2.126865387E-1
7.091853188E0,-1.329352736E0,-8.081377745E-1,-5.427646637E-2
7.096853188E0,-1.264432192E0,-7.010315657E-1,-2.883625031E-1
7.101853188E0,-1.247223854E0,-7.264089584E-1,-6.324844360E-1
7.106853188E0,-1.081239223E0,-7.986077070E-1,-9.519481659E-1
7.111853188E0,-8.506365418E-1,-9.041750431E-1,-1.115470886E0
7.116853188E0,-6.568686366E-1,-7.450647354E-1,-1.031825066E0
7.121853188E0,-7.346972227E-1,-4.177251458E-1,-1.065546989E0
7.126853188E0,-9.233282208E-1,-8.631712198E-2,-1.159832001E0
7.131853188E0,-9.770313501E-1,1.905178428E-1,-1.257575989E0
7.136853188E0,-9.128366113E-1,3.899957538E-1,-1.444391251E0
7.141853188E0,-6.963599920E-1,4.201545119E-1,-1.677848816E0
7.146853188E0,-1.050528646E0,1.900091171E-1,-1.659604073E0
7.151853188E0,-8.993484378E-1,4.456204772E-1,-1.774057388E0
7.156853188E0,-6.411651373E-1,6.888415813E-1,-1.627405167E0
7.161853188E0,-3.752554059E-1,9.600099325E-1,-1.481378555E0
7.166853188E0,-2.117820084E-1,1.148899198E0,-1.376743317E0
7.171853188E0,-1.529171914E-1,1.282930970E0,-1.289596558E0
7.176853188E0,-2.724092305E-1,1.314708710E0,-1.173248291E0
7.181853188E0,-3.434547782E-1,1.304724097E0,-1.039250374E0
7.186853188E0,-3.276584744E-1,1.219866395E0,-9.219684601E-1
7.191853188E0,-2.768619359E-1,1.079535604E0,-8.205013275E-1
7.196853188E0,-2.252228856E-1,9.315122366E-1,-8.448047638E-1
7.201853188E0,-1.409546435E-1,7.895873189E-1,-1.003790855E0
7.206853188E0,-1.109514236E-1,5.919532776E-1,-1.260821342E0
7.211853188E0,1.072937250E-2,1.905979514E-1,-1.604545593E0
7.216853188E0,2.672873735E-1,-3.207483590E-1,-2.051120281E0
7.221853188E0,7.937867045E-1,-1.035964131E0,-2.616703510E0
7.226853188E0,1.325369835E0,-1.599435925E0,-3.191084385E0
7.231853188E0,1.735678434E0,-1.774696112E0,-3.678522110E0
7.236853188E0,1.739988923E0,-1.353164315E0,-4.051545620E0
7.241853188E0,8.865916729E-1,-1.869197935E-1,-3.977942467E0
7.246853188E0,-3.710507154E-1,1.014143586E0,-3.702471733E0
7.251853188E0,-1.306077003E0,1.663300514E0,-3.503995895E0
7.256853188E0,-1.551695347E0,1.607546687E0,-3.379824638E0
7.261853188E0,-1.441966295E0,1.163264275E0,-3.380143642E0
7.266853188E0,-1.104577899E0,6.092038155E-1,-3.390888691E0
7.271853188E0,-7.760289907E-1,1.147087514E-1,-3.330781460E0
7.276853188E0,-5.919272900E-1,-1.980410218E-1,-3.212449074E0
7.281853188E0,-5.454378128E-1,-2.698285282E-1,-3.070412159E0
7.286853188E0,-6.012762785E-1,-1.512527317E-1,-2.890118122E0
7.291853188E0,-7.163026333E-1,7.259875536E-2,-2.749985695E0
7.296853188E0,-8.299138546E-1,2.256939113E-1,-2.583960056E0
7.301853188E0,-9.329833388E-1,2.814962864E-1,-2.469588757E0
7.306853188E0,-1.012522578E0,2.591674328E-1,-2.402802944E0
7.311853188E0,-1.019514322E0,2.149235606E-1,-2.375931263E0
7.316853188E0,-9.181452990E-1,1.578407288E-1,-2.399418354E0
7.321853188E0,-7.884600163E-1,1.280629635E-1,-2.384076118E0
7.326853188E0,-6.636670828E-1,1.231638193E-1,-2.335903645E0
7.331853188E0,-5.403777361E-1,1.216038465E-1,-2.270725250E0
7.336853188E0,-4.344028533E-1,1.092894971E-1,-2.199055195E0
7.341853188E0,-3.115073442E-1,1.001537144E-1,-2.109239578E0
7.346853188E0,-1.639940739E-1,7.270503044E-2,-1.954086304E0
7.351853188E0,-1.082408428E-2,8.183130622E-2,-1.731272697E0
7.356853188E0,1.842105985E-1,1.044288427E-1,-1.492971420E0
7.361853188E0,3.735702038E-1,9.799985588E-2,-1.270990372E0
7.366853188E0,5.729678273E-1,8.138182759E-2,-1.037688255E0
7.371853188E0,7.449916005E-1,1.361544430E-2,-6.945667267E-1
7.376853188E0,9.368355870E-1,-5.499652773E-2,-3.058500290E-1
7.381853188E0,1.096279860E0,-8.511056751E-2,1.542911530E-1
7.386853188E0,1.206086636E0,-9.976794571E-2,7.140789032E-1
7.391853188E0,1.329060555E0,-1.845173240E-1,1.210352898E0
7.396853188E0,1.410081148E0,-2.947760522E-1,1.625069618E0
7.401853188E0,1.432715178E0,-4.342571199E-1,1.919320107E0
7.406853188E0,1.359286308E0,-5.292895436E-1,2.079326630E0
7.411853188E0,1.196333647E0,-5.450924635E-1,2.176645279E0
7.416853188E0,1.005321980E0,-5.516510010E-1,2.233132362E0
7.421853188E0,8.376176357E-1,-5.473273993E-1,2.213643074E0
7.426853188E0,7.135999203E-1,-5.484379530E-1,2.122453690E0
7.431853188E0,6.217410564E-1,-5.344905853E-1,1.978211403E0
7.436853188E0,5.253616571E-1,-4.934897125E-1,1.844214439E0
7.441853188E0,5.378931761E-1,-4.745880663E-1,1.769673347E0
7.446853188E0,6.094225645E-1,-4.607615471E-1,1.739608765E0
7.451853188E0,7.372490168E-1,-4.358761311E-1,1.719217300E0
7.456853188E0,9.268092513E-1,-4.183902740E-1,1.802399635E0
7.461853188E0,1.164153457E0,-3.990151882E-1,1.978575706E0
7.466853188E0,1.459418178E0,-4.305053949E-1,2.252987862E0
7.471853188E0,1.757447481E0,-4.587605298E-1,2.678238869E0
7.476853188E0,2.001940250E0,-5.033338070E-1,3.204648018E0
7.481853188E0,2.186030626E0,-5.801823139E-1,3.844175339E0
7.486853188E0,2.281141281E0,-7.565917373E-1,4.592050552E0
7.491853188E0,2.216547489E0,-1.012094259E0,5.421934128E0
7.496853188E0,1.925697327E0,-1.278070450E0,6.273795128E0
7.501853188E0,1.534991503E0,-1.539297462E0,7.051675797E0
7.506853188E0,1.092918396E0,-1.818433762E0,7.783383369E0
7.511853188E0,5.562561750E-1,-2.080291986E0,8.421795845E0
7.516853188E0,9.051859379E-2,-2.290727139E0,8.912764549E0
7.521853188E0,-3.727612495E-1,-2.431221247E0,9.222283363E0
7.526853188E0,-7.937998772E-1,-2.466937304E0,9.348628998E0
7.531853188E0,-1.122191429E0,-2.412667513E0,9.293009758E0
7.536853188E0,-1.297185540E0,-2.308086872E0,8.986452103E0
7.541853188E0,-1.245734096E0,-2.160220623E0,8.510620117E0
7.546853188E0,-1.000590801E0,-1.992285252E0,7.978647232E0
7.551853188E0,-5.993765593E-1,-1.832820415E0,7.416355133E0
7.556853188E0,-6.130725145E-2,-1.644512415E0,6.857245445E0
7.561853188E0,5.456395149E-1,-1.419537902E0,6.332277298E0
7.566853188E0,1.142259598E0,-1.195922375E0,5.888216972E0
7.571853188E0,1.730586052E0,-9.922955036E-1,5.402437210E0
7.576853188E0,2.277376175E0,-8.284622431E-1,4.886530876E0
7.581853188E0,2.776751518E0,-6.841251850E-1,4.336323738E0
7.586853188E0,3.233107328E0,-5.757229924E-1,3.810024261E0
7.591853188E0,3.576305389E0,-5.247361660E-1,3.340331078E0
7.596853188E0,3.799433708E0,-4.499269128E-1,2.949856758E0
7.601853188E0,3.913956165E0,-3.651692271E-1,2.574069023E0
7.606853188E0,3.949823380E0,-3.319734335E-1,2.183321953E0
7.611853188E0,3.885127068E0,-3.458638787E-1,1.752557755E0
7.616853188E0,3.755567551E0,-3.898239136E-1,1.280403137E0
7.621853188E0,3.524335384E0,-4.154146314E-1,8.358449936E-1
7.626853188E0,3.220973492E0,-4.305425286E-1,3.728189468E-1
7.631853188E0,2.857813358E0,-4.442483187E-1,-6.119441986E-2
7.636853188E0,2.505470514E0,-4.263811707E-1,-4.879846573E-1
7.641853188E0,2.192958832E0,-3.752918243E-1,-9.017877579E-1
7.646853188E0,1.921586514E0,-3.269850016E-1,-1.324897766E0
7.651853188E0,1.685143471E0,-2.820594013E-1,-1.734827042E0
7.656853188E0,1.450776339E0,-2.443450987E-1,-2.124796867E0
7.661853188E0,1.201706767E0,-1.944640875E-1,-2.451078415E0
7.666853188E0,1.000186920E0,-1.208477914E-1,-2.785926819E0
7.671853188E0,8.524270058E-1,-5.169489980E-2,-3.108393192E0
7.676853188E0,7.564648390E-1,1.613777876E-2,-3.399173737E0
7.681853188E0,7.228109241E-1,6.496724486E-2,-3.587348461E0
7.686853188E0,6.692892909E-1,8.045637608E-2,-3.774760246E0
7.691853188E0,5.769158006E-1,9.808117151E-2,-4.001888275E0
7.696853188E0,5.532241464E-1,1.196527928E-1,-4.131871700E0
7.701853188E0,5.402982235E-1,1.856858879E-1,-4.207215786E0
7.706853188E0,5.605959296E-1,2.623480856E-1,-4.328757286E0
7.711853188E0,5.721322298E-1,3.026993275E-1,-4.388126850E0
7.716853188E0,6.067506075E-1,3.590795696E-1,-4.473377228E0
7.721853188E0,6.471270323E-1,4.609106183E-1,-4.556502819E0
7.726853188E0,7.161430120E-1,5.478498340E-1,-4.624424934E0
7.731853188E0,8.513360023E-1,5.564786196E-1,-4.652109623E0
7.736853188E0,1.021581531E0,5.301694870E-1,-4.730827808E0
7.741853188E0,1.074432731E0,6.557173133E-1,-4.760628700E0
7.746853188E0,1.131580234E0,7.330899835E-1,-4.876387119E0
7.751853188E0,1.199339151E0,7.587749958E-1,-5.054434299E0
7.756853188E0,1.296928167E0,6.927317977E-1,-5.296499729E0
7.761853188E0,1.177060366E0,8.383607268E-1,-5.442234993E0
7.766853188E0,1.078716993E0,8.925075531E-1,-5.599697113E0
7.771853188E0,1.041594386E0,8.951197267E-1,-5.810599327E0
7.776853188E0,1.093075275E0,8.256677985E-1,-6.025936604E0
7.781853188E0,1.176052928E0,7.881450653E-1,-6.211680889E0
7.786853188E0,1.240500927E0,7.585147023E-1,-6.324504852E0
7.791853188E0,1.267612934E0,7.806380391E-1,-6.426382065E0
7.796853188E0,1.241185188E0,8.518964052E-1,-6.484387398E0
7.801853188E0,1.228578329E0,9.405555725E-1,-6.481890678E0
7.806853188E0,1.270513058E0,9.982900023E-1,-6.455292702E0
7.811853188E0,1.355371714E0,9.508909583E-1,-6.411607742E0
7.816853188E0,1.425686121E0,8.836580515E-1,-6.307751656E0
7.821853188E0,1.358392715E0,9.046090841E-1,-6.108808517E0
7.826853188E0,1.243250608E0,9.067963958E-1,-5.871632576E0
7.831853188E0,1.178047061E0,8.843672276E-1,-5.628373623E0
7.836853188E0,1.121126890E0,8.421264887E-1,-5.456110001E0
7.841853188E0,1.075048447E0,7.817191482E-1,-5.296433449E0
7.846853188E0,9.998272657E-1,7.061324120E-1,-5.067202568E0
7.851853188E0,8.476344347E-1,6.854350567E-1,-4.744126320E0
7.856853188E0,6.657280922E-1,6.739230156E-1,-4.310333729E0
7.861853188E0,5.097142458E-1,6.693762541E-1,-3.863790989E0
7.866853188E0,3.742176592E-1,6.460826397E-1,-3.447731018E0
7.871853188E0,2.208897173E-1,5.840651989E-1,-3.123834133E0
7.876853188E0,5.547344685E-2,5.614677668E-1,-2.847059727E0
7.881853188E0,-8.908790350E-2,5.610569119E-1,-2.580163956E0
7.886853188E0,-2.419374585E-1,5.873350501E-1,-2.294040203E0
7.891853188E0,-4.061064124E-1,6.411815286E-1,-1.969799519E0
7.896853188E0,-5.073492527E-1,6.979795694E-1,-1.623702049E0
7.901853188E0,-5.331349373E-1,7.287178040E-1,-1.292710304E0
7.906853188E0,-5.007947683E-1,7.342519164E-1,-1.023027420E0
7.911853188E0,-4.038551450E-1,7.363576889E-1,-7.777805328E-1
7.916853188E0,-2.705445290E-1,7.336182594E-1,-5.590467453E-1
7.921853188E0,-1.518088579E-1,7.299446464E-1,-3.765068054E-1
7.926853188E0,-2.898612618E-2,8.009795547E-1,-2.328710556E-1
7.931853188E0,7.460972667E-2,8.536823988E-1,-1.246547699E-1
7.936853188E0,1.793228984E-1,8.824852705E-1,-1.877689362E-2
7.941853188E0,2.798157632E-1,9.061394334E-1,1.030998230E-1
7.946853188E0,3.461203277E-1,9.296749830E-1,2.441358566E-1
7.951853188E0,3.626856506E-1,9.372456074E-1,4.901084900E-1
7.956853188E0,3.352273703E-1,9.141153693E-1,8.234577179E-1
7.961853188E0,1.964401454E-1,9.035466313E-1,1.256661415E0
7.966853188E0,-4.909411073E-2,8.728182316E-1,1.770327568E0
7.971853188E0,-3.883584142E-1,8.363294601E-1,2.296977997E0
7.976853188E0,-7.493689656E-1,7.430352569E-1,2.880187988E0
7.981853188E0,-1.099255323E0,6.934503317E-1,3.396624565E0
7.986853188E0,-1.419879436E0,6.653279662E-1,3.869583130E0
7.991853188E0,-1.711958408E0,6.982632279E-1,4.305417061E0
7.996853188E0,-1.988843441E0,7.873052359E-1,4.574973106E0
8.001853188E0,-2.262258291E0,9.228588939E-1,4.609127045E0
8.006853188E0,-2.470401525E0,1.031578183E0,4.539064407E0
8.011853188E0,-2.591908932E0,1.053745747E0,4.418812752E0
8.016853188E0,-2.636652470E0,1.070735812E0,4.310623169E0
8.021853188E0,-2.610137463E0,1.116895437E0,4.296068192E0
8.026853188E0,-2.471041679E0,1.156292200E0,4.524137497E0
8.031853188E0,-2.229603767E0,1.046203494E0,4.945890427E0
8.036853188E0,-1.972072601E0,8.675380945E-1,5.547971725E0
8.041853188E0,-1.807538271E0,6.677489281E-1,6.233110428E0
8.046853188E0,-1.767655492E0,4.637158513E-1,6.928772926E0
8.051853188E0,-1.772803068E0,2.402955294E-1,7.515367508E0
8.056853188E0,-1.872926593E0,1.722060144E-3,8.007083893E0
8.061853188E0,-2.040646791E0,-2.112587988E-1,8.307588577E0
8.066853188E0,-2.275536060E0,-3.877491057E-1,8.374795914E0
8.071853188E0,-2.526750088E0,-5.069921017E-1,8.220229149E0
8.076853188E0,-2.764213085E0,-5.826143026E-1,7.913374901E0
8.081853188E0,-2.889473677E0,-6.785971522E-1,7.491076469E0
8.086853188E0,-2.963481426E0,-7.693769932E-1,7.014844894E0
8.091853188E0,-2.987397909E0,-8.101812601E-1,6.553740501E0
8.096853188E0,-2.979955435E0,-7.956615686E-1,6.082293510E0
8.101853188E0,-2.929311991E0,-7.537572980E-1,5.606017113E0
8.106853188E0,-2.838287830E0,-7.060256600E-1,5.131952286E0
8.111853188E0,-2.745055199E0,-6.590414643E-1,4.714122772E0
8.116853188E0,-2.652159929E0,-6.245338917E-1,4.340741158E0
8.121853188E0,-2.576996088E0,-5.751687884E-1,4.038619995E0
8.126853188E0,-2.521752834E0,-5.717976093E-1,3.754310608E0
8.131853188E0,-2.472604752E0,-5.861911774E-1,3.537650108E0
8.136853188E0,-2.400059223E0,-6.445965767E-1,3.378377914E0
8.141853188E0,-2.349808216E0,-7.272332907E-1,3.254536629E0
8.146853188E0,-2.279310942E0,-8.145995736E-1,3.161026001E0
8.151853188E0,-2.256806135E0,-8.945162296E-1,3.069267273E0
8.156853188E0,-2.230476379E0,-9.451755881E-1,2.964369774E0
8.161853188E0,-2.175025940E0,-9.947156906E-1,2.836058617E0
8.166853188E0,-2.091655970E0,-1.032298684E0,2.687047005E0
8.171853188E0,-2.016840696E0,-1.043317676E0,2.475655556E0
8.176853188E0,-1.920835376E0,-1.069646597E0,2.277790070E0
8.181853188E0,-1.858869076E0,-1.088396549E0,2.121617317E0
8.186853188E0,-1.807603121E0,-1.088684678E0,1.971989632E0
8.191853188E0,-1.730584145E0,-1.066203833E0,1.833819389E0
8.196853188E0,-1.631329417E0,-1.035071611E0,1.682104111E0
8.201853188E0,-1.510550857E0,-9.714243412E-1,1.493171692E0
8.206853188E0,-1.354349613E0,-9.087613821E-1,1.215230942E0
8.211853188E0,-1.200229287E0,-8.542031050E-1,8.879928589E-1
8.216853188E0,-1.041231871E0,-7.942460775E-1,5.163087845E-1
8.221853188E0,-8.524785042E-1,-7.300158739E-1,6.622886658E-2
8.226853188E0,-7.018843889E-1,-6.470461488E-1,-3.995037079E-1
8.231853188E0,-5.545804501E-1,-5.644693375E-1,-8.819198608E-1
8.236853188E0,-4.189657569E-1,-4.828729630E-1,-1.397424698E0
8.241853188E0,-2.827811241E-1,-4.427756965E-1,-1.906055450E0
8.246853188E0,-1.895582080E-1,-3.923031688E-1,-2.378797054E0
8.251853188E0,-9.924656153E-2,-3.687029481E-1,-2.837995529E0
8.256853188E0,-6.197988987E-3,-3.613063693E-1,-3.278136253E0
8.261853188E0,7.417702675E-2,-3.465984762E-1,-3.695405006E0
8.266853188E0,1.684451997E-1,-3.560125232E-1,-4.044561386E0
8.271853188E0,2.264118493E-1,-3.503307104E-1,-4.387272358E0
8.276853188E0,3.103290200E-1,-3.362483978E-1,-4.676898956E0
8.281853188E0,4.000036120E-1,-3.350646794E-1,-4.894193649E0
8.286853188E0,4.904541969E-1,-3.166141510E-1,-5.086279392E0
8.291853188E0,5.972753167E-1,-3.125209808E-1,-5.268663883E0
8.296853188E0,7.033919096E-1,-3.094415069E-1,-5.461230278E0
8.301853188E0,8.202687502E-1,-3.177468777E-1,-5.641490936E0
8.306853188E0,9.320698977E-1,-3.499013782E-1,-5.829193115E0
8.311853188E0,1.004735708E0,-3.556566238E-1,-5.972966194E0
8.316853188E0,1.057723165E0,-4.049226642E-1,-6.068244934E0
8.321853188E0,1.078256726E0,-4.279056787E-1,-6.133649349E0
8.326853188E0,1.095506430E0,-4.336085916E-1,-6.194622040E0
8.331853188E0,1.144952297E0,-4.381680489E-1,-6.253382683E0
8.336853188E0,1.194406271E0,-4.541841149E-1,-6.244698524E0
8.341853188E0,1.160913944E0,-4.917562604E-1,-6.175510406E0
8.346853188E0,1.127730608E0,-5.243638158E-1,-6.052065849E0
8.351853188E0,1.072001934E0,-5.317894220E-1,-5.923290730E0
8.356853188E0,1.033272386E0,-5.511405468E-1,-5.811496258E0
8.361853188E0,1.037198544E0,-5.367506742E-1,-5.708908558E0
8.366853188E0,1.041589618E0,-5.554586053E-1,-5.630226135E0
8.371853188E0,1.103186369E0,-5.528179407E-1,-5.590688229E0
8.376853188E0,1.142077684E0,-5.476738214E-1,-5.573487759E0
8.381853188E0,1.175792098E0,-5.611099601E-1,-5.525805950E0
8.386853188E0,1.205638051E0,-5.883579254E-1,-5.433490276E0
8.391853188E0,1.222403884E0,-6.140861511E-1,-5.250899315E0
8.396853188E0,1.186736584E0,-6.258136630E-1,-5.015364170E0
8.401853188E0,1.140394211E0,-6.491585374E-1,-4.749232292E0
8.406853188E0,1.074711800E0,-6.844488978E-1,-4.434964657E0
8.411853188E0,9.906497002E-1,-7.090031505E-1,-4.072116852E0
8.416853188E0,9.107959867E-1,-7.218388915E-1,-3.793423176E0
8.421853188E0,8.349669576E-1,-7.423845530E-1,-3.509405136E0
8.426853188E0,7.441660166E-1,-7.619969249E-1,-3.269888878E0
8.431853188E0,6.298559308E-1,-7.977881432E-1,-3.062018871E0
8.436853188E0,5.479282141E-1,-8.018233180E-1,-2.894792557E0
8.441853188E0,5.126753449E-1,-8.243746758E-1,-2.770434380E0
8.446853188E0,5.007316470E-1,-8.490439057E-1,-2.698471546E0
8.451853188E0,5.485771894E-1,-8.625590801E-1,-2.563942432E0
8.456853188E0,6.250752211E-1,-8.644483089E-1,-2.428651810E0
8.461853188E0,7.236897945E-1,-8.425503969E-1,-2.317533493E0
8.466853188E0,8.248252869E-1,-8.046644330E-1,-2.193436623E0
8.471853188E0,9.320761561E-1,-7.828266025E-1,-2.064467907E0
8.476853188E0,1.063874602E0,-7.905896306E-1,-1.926290512E0
8.481853188E0,1.203835487E0,-7.995773554E-1,-1.741519928E0
8.486853188E0,1.298754692E0,-7.803127766E-1,-1.486820221E0
8.491853188E0,1.323457003E0,-7.614967823E-1,-1.171787262E0
8.496853188E0,1.268319607E0,-7.369853854E-1,-7.830772400E-1
8.501853188E0,1.151129961E0,-7.347365022E-1,-3.235607147E-1
8.506853188E0,9.901141524E-1,-7.634713650E-1,2.398128510E-1
8.511853188E0,7.797470093E-1,-8.333392143E-1,8.519763947E-1
8.516853188E0,5.431287885E-1,-8.814042807E-1,1.510435104E0
8.521853188E0,3.123777509E-1,-9.011433721E-1,2.082294464E0
8.526853188E0,8.647948503E-2,-8.978455067E-1,2.481245041E0
8.531853188E0,-8.766937256E-2,-8.306138515E-1,2.678255081E0
8.536853188E0,-2.168723345E-1,-7.645293474E-1,2.687437057E0
8.541853188E0,-2.553317547E-1,-7.399562597E-1,2.556633949E0
8.546853188E0,-2.150476575E-1,-7.493341565E-1,2.415375710E0
8.551853188E0,-9.292787313E-2,-7.491670847E-1,2.385587692E0
8.556853188E0,7.494360209E-2,-7.653576732E-1,2.528007507E0
8.561853188E0,2.606134415E-1,-7.662488818E-1,2.922199249E0
8.566853188E0,4.085221291E-1,-7.508029342E-1,3.466727257E0
8.571853188E0,5.167534947E-1,-7.569823265E-1,4.178911209E0
8.576853188E0,5.275948644E-1,-8.074223995E-1,4.979783058E0
8.581853188E0,4.723693728E-1,-8.750563264E-1,5.744812012E0
8.586853188E0,4.105049372E-1,-1.087383747E0,6.567895889E0
8.591853188E0,1.766527295E-1,-1.141652346E0,7.224779129E0
8.596853188E0,-9.703123569E-2,-1.202342987E0,7.718364716E0
8.601853188E0,4.508167505E-2,-1.620811701E0,8.241883278E0
8.606853188E0,1.139541268E-1,-1.908378959E0,8.509961128E0
8.611853188E0,4.729551077E-2,-2.081597090E0,8.579576492E0
8.616853188E0,-2.586545944E-1,-2.031298399E0,8.347414017E0
8.621853188E0,-6.654747725E-1,-1.717894554E0,7.865027428E0
8.626853188E0,-8.436868191E-1,-1.493983150E0,7.471786499E0
8.631853188E0,-9.086019993E-1,-1.283893347E0,6.971815109E0
8.636853188E0,-8.250007629E-1,-1.204879761E0,6.273839951E0
8.641853188E0,-7.284877896E-1,-1.213376522E0,5.681020737E0
8.646853188E0,-6.047599912E-1,-1.232459426E0,5.210577965E0
8.651853188E0,-4.548633695E-1,-1.211332321E0,4.854724884E0
8.656853188E0,-2.679621279E-1,-1.162210822E0,4.588778496E0
8.661853188E0,-3.516995907E-2,-1.094527006E0,4.406506538E0
8.666853188E0,2.535160184E-1,-1.052712202E0,4.241067886E0
8.671853188E0,5.958918929E-1,-1.016048789E0,4.065037727E0
8.676853188E0,9.560447931E-1,-9.604766369E-1,3.824122429E0
8.681853188E0,1.283418298E0,-8.963094354E-1,3.559385300E0
8.686853188E0,1.567974329E0,-8.325746059E-1,3.254691124E0
8.691853188E0,1.788910985E0,-7.552008033E-1,2.912141800E0
8.696853188E0,1.942828655E0,-6.820383072E-1,2.570490837E0
8.701853188E0,2.030984879E0,-5.977357626E-1,2.212461472E0
8.706853188E0,2.046266794E0,-5.298238993E-1,1.846394539E0
8.711853188E0,1.998828292E0,-4.490385652E-1,1.468575478E0
8.716853188E0,1.881724238E0,-3.639235497E-1,1.045945168E0
8.721853188E0,1.728639603E0,-2.680065632E-1,6.234426498E-1
8.726853188E0,1.561148524E0,-1.704494655E-1,1.674022675E-1
8.731853188E0,1.358342171E0,-8.158660680E-2,-3.339633942E-1
8.736853188E0,1.163402438E0,3.521062434E-3,-8.018207550E-1
8.741853188E0,9.879229069E-1,7.536220551E-2,-1.279791832E0
8.746853188E0,7.941614389E-1,1.405105591E-1,-1.747237206E0
8.751853188E0,5.930165648E-1,1.970206499E-1,-2.218589306E0
8.756853188E0,4.186137915E-1,2.691788077E-1,-2.666968822E0
8.761853188E0,2.686052918E-1,3.185327351E-1,-3.080739975E0
8.766853188E0,1.220309436E-1,3.772305548E-1,-3.446987152E0
8.771853188E0,-1.906225085E-2,4.563641548E-1,-3.766368866E0
8.776853188E0,-1.324372739E-1,5.579620004E-1,-4.013773918E0
8.781853188E0,-1.501991898E-1,6.076918840E-1,-4.335634232E0
8.786853188E0,-1.806476414E-1,6.503834724E-1,-4.588472366E0
8.791853188E0,-1.913829297E-1,6.993653178E-1,-4.796533585E0
8.796853188E0,-2.061676830E-1,7.252781391E-1,-4.900286674E0
8.801853188E0,-3.992565274E-1,8.866747618E-1,-4.962673187E0
8.806853188E0,-3.355944753E-1,9.688552618E-1,-4.832627296E0
8.811853188E0,-1.593685448E-1,1.070056558E0,-4.837065220E0
8.816853188E0,2.722389996E-1,9.978330135E-1,-4.765207291E0
8.821853188E0,6.672785878E-1,7.661798000E-1,-4.582170963E0
8.826853188E0,9.285278916E-1,6.801761389E-1,-4.398202896E0
8.831853188E0,9.111482501E-1,8.039456606E-1,-4.143007278E0
8.836853188E0,8.965330720E-1,1.006881237E0,-4.059288502E0
8.841853188E0,8.324254155E-1,1.148935914E0,-4.040374279E0
8.846853188E0,8.532344699E-1,1.203268647E0,-3.956472397E0
8.851853188E0,9.141124487E-1,1.284811974E0,-3.776199341E0
8.856853188E0,9.218821526E-1,1.308959723E0,-3.702894688E0
8.861853188E0,9.393482804E-1,1.247628689E0,-3.629886150E0
8.866853188E0,9.394437075E-1,1.190582275E0,-3.631885529E0
8.871853188E0,9.101366401E-1,1.159672022E0,-3.653793335E0
8.876853188E0,8.676763773E-1,1.146057606E0,-3.706574917E0
8.881853188E0,8.207141161E-1,1.132241488E0,-3.768427372E0
8.886853188E0,7.813623548E-1,1.136593342E0,-3.827098846E0
8.891853188E0,7.634096146E-1,1.136476874E0,-3.841030598E0
8.896853188E0,7.479105592E-1,1.130770683E0,-3.800824165E0
8.901853188E0,7.156854272E-1,1.112922072E0,-3.684575081E0
8.906853188E0,6.771051884E-1,1.094257593E0,-3.484406471E0
8.911853188E0,6.133273244E-1,1.076819897E0,-3.228402138E0
8.916853188E0,5.375037193E-1,1.066856027E0,-2.922466755E0
8.921853188E0,4.928698838E-1,1.062715769E0,-2.653889179E0
8.926853188E0,4.882890582E-1,1.084045649E0,-2.413263798E0
8.931853188E0,5.120915174E-1,1.099084973E0,-2.200374603E0
8.936853188E0,5.564177036E-1,1.123293400E0,-1.992411137E0
8.941853188E0,5.737339258E-1,1.137626410E0,-1.763954163E0
8.946853188E0,6.051896811E-1,1.191582084E0,-1.573753357E0
8.951853188E0,5.976426601E-1,1.226284504E0,-1.397589684E0
8.956853188E0,6.213063598E-1,1.269244432E0,-1.292008400E0
8.961853188E0,6.011569500E-1,1.318510413E0,-1.227721214E0
8.966853188E0,5.525228977E-1,1.346605301E0,-1.202310562E0
8.971853188E0,4.610512555E-1,1.358807087E0,-1.220313072E0
8.976853188E0,3.364039063E-1,1.376836300E0,-1.195022583E0
8.981853188E0,1.668231636E-1,1.384613752E0,-1.143397331E0
8.986853188E0,-2.047395706E-2,1.351367712E0,-1.070617676E0
8.991853188E0,-2.248201519E-1,1.299904227E0,-9.750537872E-1
8.996853188E0,-4.386338294E-1,1.288427711E0,-8.753185272E-1
9.001853188E0,-6.287223697E-1,1.272288084E0,-7.692661285E-1
9.006853188E0,-7.960315943E-1,1.276070356E0,-6.755027771E-1
9.011853188E0,-8.945964575E-1,1.268440008E0,-5.390300751E-1
9.016853188E0,-9.197177291E-1,1.228549719E0,-3.812198639E-1
9.021853188E0,-1.157852888E0,1.244654179E0,-5.411434174E-2
9.026853188E0,-7.270081639E-1,1.058597565E0,1.483135223E-1
9.031853188E0,-3.539654613E-1,8.842893243E-1,4.418134689E-1
9.036853188E0,-3.765107095E-1,8.976467252E-1,1.047234535E0
9.041853188E0,-4.808988571E-1,9.513648748E-1,1.731863976E0
9.046853188E0,-4.910216331E-1,1.009078622E0,2.211722374E0
9.051853188E0,-5.372381210E-1,9.893289804E-1,2.661356926E0
9.056853188E0,-6.963428259E-1,9.102548361E-1,3.102222443E0
9.061853188E0,-9.475344419E-1,8.426767588E-1,3.574739456E0
9.066853188E0,-1.224342585E0,8.227181435E-1,4.066342354E0
9.071853188E0,-1.510624051E0,8.524472713E-1,4.504513741E0
9.076853188E0,-1.698545933E0,9.244399071E-1,4.735051155E0
9.081853188E0,-1.800868034E0,1.145773172E0,4.629781723E0
9.086853188E0,-1.844255090E0,1.395541668E0,4.261649132E0
9.091853188E0,-1.897814631E0,1.337998033E0,3.873633385E0
9.096853188E0,-1.957984805E0,1.138523698E0,3.694073677E0
9.101853188E0,-2.133642673E0,1.117441058E0,3.660964966E0
9.106853188E0,-2.414139986E0,1.284789801E0,3.811749458E0
9.111853188E0,-2.279443741E0,1.200471640E0,3.874435425E0
9.116853188E0,-1.716067672E0,9.827336669E-1,4.073496819E0
9.121853188E0,-1.385796785E0,8.195331097E-1,4.678272247E0
9.126853188E0,-1.150998116E0,6.428477764E-1,5.461463928E0
9.131853188E0,-9.937758446E-1,4.462808371E-1,6.147982597E0
9.136853188E0,-9.680064321E-1,3.970350027E-1,6.703287125E0
9.141853188E0,-9.906202555E-1,3.649309874E-1,7.239814758E0
9.146853188E0,-1.144388318E0,3.944604993E-1,7.628625870E0
9.151853188E0,-1.428596139E0,4.117834568E-1,7.862166405E0
9.156853188E0,-1.670975566E0,3.376794457E-1,7.854158401E0
9.161853188E0,-1.868056297E0,1.570641994E-1,7.581543922E0
9.166853188E0,-2.069386482E0,-1.222510338E-1,7.100621223E0
9.171853188E0,-2.299319029E0,-3.586525619E-1,6.488149643E0
9.176853188E0,-2.555077553E0,-4.752654433E-1,5.953675270E0
9.181853188E0,-2.813587904E0,-5.895238519E-1,5.486343384E0
9.186853188E0,-3.029209137E0,-7.079983950E-1,5.120535851E0
9.191853188E0,-3.221738338E0,-8.338161111E-1,4.806793213E0
9.196853188E0,-3.378732204E0,-9.444603920E-1,4.561009407E0
9.201853188E0,-3.428051233E0,-1.018687248E0,4.386231422E0
9.206853188E0,-3.363600016E0,-1.067268491E0,4.270775795E0
9.211853188E0,-3.197235346E0,-1.079692125E0,4.211566925E0
9.216853188E0,-2.917017698E0,-1.079559207E0,4.180779457E0
9.221853188E0,-2.576675415E0,-1.042277336E0,4.074055672E0
9.226853188E0,-2.225719690E0,-9.964702129E-1,3.956804276E0
9.231853188E0,-1.844325781E0,-9.357503653E-1,3.772095680E0
9.236853188E0,-1.455579400E0,-8.530601859E-1,3.519085884E0
9.241853188E0,-1.065006971E0,-7.844037414E-1,3.175290108E0
9.246853188E0,-7.091220617E-1,-7.191048861E-1,2.777461052E0
9.251853188E0,-4.112358391E-1,-6.218161583E-1,2.349559784E0
9.256853188E0,-1.972585320E-1,-5.425679088E-1,1.876189232E0
9.261853188E0,-5.529397726E-2,-5.014091730E-1,1.369509697E0
9.266853188E0,-1.227468252E-2,-4.856869876E-1,8.331136703E-1
9.271853188E0,-8.129745722E-3,-5.466821790E-1,2.753705978E-1
9.276853188E0,-2.436524630E-2,-6.321609020E-1,-2.693624496E-1
9.281853188E0,-6.311938167E-2,-7.293347120E-1,-8.275003433E-1
9.286853188E0,-1.690880954E-1,-7.830239534E-1,-1.318734169E0
9.291853188E0,-2.921268940E-1,-8.050945401E-1,-1.791134834E0
9.296853188E0,-3.803189993E-1,-8.161323667E-1,-2.161435604E0
9.301853188E0,-5.127973557E-1,-8.131510019E-1,-2.511269569E0
9.306853188E0,-9.338698387E-1,-6.868498325E-1,-2.751811504E0
9.311853188E0,-5.809113979E-1,-8.472948074E-1,-3.188572884E0
9.316853188E0,-1.226956546E-1,-1.102242708E0,-3.702039242E0
9.321853188E0,3.766801953E-2,-1.190365791E0,-4.049168110E0
9.326853188E0,5.539476871E-2,-1.248564363E0,-4.195638180E0
9.331853188E0,-1.698961854E-2,-1.216283083E0,-4.317029953E0
9.336853188E0,-1.980403513E-1,-1.108800650E0,-4.485772133E0
9.341853188E0,-2.796891630E-1,-1.061509013E0,-4.714262009E0
9.346853188E0,-2.963080704E-1,-1.090960383E0,-4.890828133E0
9.351853188E0,-2.383030653E-1,-1.180651069E0,-5.108281136E0
9.356853188E0,-7.500635833E-2,-1.399512887E0,-5.448543072E0
9.361853188E0,2.086648941E-1,-1.537048936E0,-5.532301903E0
9.366853188E0,3.185556531E-1,-1.622337103E0,-5.565448284E0
9.371853188E0,3.196085691E-1,-1.619367719E0,-5.737620831E0
9.376853188E0,3.635848165E-1,-1.604362845E0,-5.812479019E0
9.381853188E0,3.699266613E-1,-1.612967849E0,-5.856436253E0
9.386853188E0,2.993364036E-1,-1.573660851E0,-5.887267113E0
9.391853188E0,2.461679578E-1,-1.583144307E0,-6.022028923E0
9.396853188E0,1.252417415E-1,-1.596631169E0,-6.136449814E0
9.401853188E0,3.789440542E-2,-1.607124805E0,-6.254940033E0
9.406853188E0,3.324148059E-2,-1.690047622E0,-6.388097763E0
9.411853188E0,-1.862473786E-2,-1.782118559E0,-6.486692429E0
9.416853188E0,4.760199040E-2,-1.846035719E0,-6.317649364E0
9.421853188E0,1.774221659E-1,-1.915066123E0,-6.171568871E0
9.426853188E0,3.537344933E-1,-1.935396194E0,-6.019384384E0
9.431853188E0,5.295921564E-1,-1.901550889E0,-5.792438507E0
9.436853188E0,5.934706330E-1,-1.743936658E0,-5.505007744E0
9.441853188E0,5.881717205E-1,-1.547187924E0,-5.204072952E0
9.446853188E0,6.615338326E-1,-1.362187624E0,-4.970310211E0
9.451853188E0,7.375338674E-1,-1.225667715E0,-4.730998039E0
9.456853188E0,7.859582901E-1,-1.174030304E0,-4.525763988E0
9.461853188E0,8.009136915E-1,-1.153393626E0,-4.379709244E0
9.466853188E0,7.456707358E-1,-1.164528370E0,-4.288028717E0
9.471853188E0,6.439880729E-1,-1.160178423E0,-4.176109791E0
9.476853188E0,4.571214914E-1,-1.123221636E0,-4.084580898E0
9.481853188E0,2.259106040E-1,-1.044894218E0,-3.989379883E0
9.486853188E0,1.730811596E-2,-9.598647952E-1,-3.888478279E0
9.491853188E0,-7.980269194E-2,-9.064860344E-1,-3.709480286E0
9.496853188E0,-8.047041297E-2,-8.810192347E-1,-3.430056572E0
9.501853188E0,-2.330595255E-2,-8.556291461E-1,-3.049481392E0
9.506853188E0,4.715251923E-2,-8.241604567E-1,-2.590299606E0
9.511853188E0,1.406470537E-1,-7.778464556E-1,-2.105159760E0
9.516853188E0,2.653657198E-1,-7.116153240E-1,-1.636918545E0
9.521853188E0,4.425939918E-1,-6.725423336E-1,-1.180601120E0
9.526853188E0,6.730228066E-1,-6.553459167E-1,-7.748136520E-1
9.531853188E0,9.201918840E-1,-6.628355980E-1,-3.858556747E-1
9.536853188E0,1.142093539E0,-6.353768110E-1,-5.068206787E-2
9.541853188E0,1.340220451E0,-6.125071049E-1,2.147731781E-1
9.546853188E0,1.465796590E0,-5.537922382E-1,4.061651230E-1
9.551853188E0,1.514467597E0,-4.667578936E-1,5.201044083E-1
9.556853188E0,1.546224236E0,-4.017236233E-1,6.127672195E-1
9.561853188E0,1.545611620E0,-3.415626287E-1,7.664661407E-1
9.566853188E0,1.505369902E0,-2.782583237E-1,9.684543610E-1
9.571853188E0,1.433654189E0,-2.247911692E-1,1.232589722E0
9.576853188E0,1.357073903E0,-1.653794050E-1,1.552225113E0
9.581853188E0,1.237119913E0,-1.062771082E-1,1.917718887E0
9.586853188E0,1.133434176E0,-1.091847420E-1,2.287787437E0
9.591853188E0,9.588893652E-1,-1.171029806E-1,2.586153984E0
9.596853188E0,6.910104752E-1,-9.232532978E-2,2.820153236E0
9.601853188E0,3.795068264E-1,-1.603162289E-2,3.048612595E0
9.606853188E0,5.297315121E-2,6.916224957E-2,3.253917694E0
9.611853188E0,-2.174183130E-1,1.854174137E-1,3.410391808E0
9.616853188E0,-4.303503036E-1,2.178392410E-1,3.586379051E0
9.621853188E0,-5.223138928E-1,2.037054300E-1,3.763045311E0
9.626853188E0,-5.347723365E-1,1.787209511E-1,3.957201958E0
9.631853188E0,-4.614159465E-1,1.926604509E-1,4.169419289E0
9.636853188E0,-3.182493448E-1,2.107673287E-1,4.437696457E0
9.641853188E0,-1.341016293E-1,2.397588491E-1,4.825317383E0
9.646853188E0,9.637331963E-2,2.506718636E-1,5.294508934E0
9.651853188E0,3.325096369E-1,2.173427939E-1,5.784234047E0
9.656853188E0,5.257284641E-1,1.412066221E-1,6.208900452E0
9.661853188E0,6.885640621E-1,4.547494650E-2,6.527927399E0
9.666853188E0,7.565308809E-1,-6.664925814E-2,6.811301231E0
9.671853188E0,7.410740852E-1,-2.078126371E-1,7.082279205E0
9.676853188E0,6.065702438E-1,-3.708997965E-1,7.367126465E0
9.681853188E0,4.045040607E-1,-4.830517173E-1,7.668133736E0
9.686853188E0,1.302554607E-1,-6.311821342E-1,7.844882011E0
9.691853188E0,-2.275468111E-1,-7.652243376E-1,7.903714180E0
9.696853188E0,-5.989521742E-1,-8.827637434E-1,7.845793724E0
9.701853188E0,-9.548163414E-1,-9.664618969E-1,7.646921158E0
9.706853188E0,-1.282753706E0,-1.028208494E0,7.322606087E0
9.711853188E0,-1.571274281E0,-1.037048340E0,6.857111931E0
9.716853188E0,-1.773751616E0,-1.018641472E0,6.338718414E0
9.721853188E0,-1.887781382E0,-9.773056507E-1,5.790927887E0
9.726853188E0,-1.880896330E0,-9.199084640E-1,5.227731705E0
9.731853188E0,-1.725949883E0,-8.677576780E-1,4.669059753E0
9.736853188E0,-1.451128483E0,-8.060449362E-1,4.043652534E0
9.741853188E0,-1.103250384E0,-7.184182405E-1,3.419792175E0
9.746853188E0,-6.771855354E-1,-5.907297730E-1,2.848152161E0
9.751853188E0,-1.790449023E-1,-4.525013566E-1,2.283495903E0
9.756853188E0,3.118323088E-1,-2.907066941E-1,1.742555618E0
9.761853188E0,7.657953501E-1,-1.427310407E-1,1.177639961E0
9.766853188E0,1.153850913E0,-1.277863979E-2,6.894941330E-1
9.771853188E0,1.500010252E0,9.688425064E-2,2.327365875E-1
9.776853188E0,1.761238694E0,1.898379922E-1,-2.231874466E-1
9.781853188E0,1.887970448E0,3.266243339E-1,-6.548929214E-1
9.786853188E0,1.883983970E0,4.252399802E-1,-1.127836227E0
9.791853188E0,1.824620605E0,4.855152965E-1,-1.570613861E0
9.796853188E0,1.729328990E0,5.202022195E-1,-1.916975498E0
9.801853188E0,1.555668592E0,5.173304677E-1,-2.250039101E0
9.806853188E0,1.401072621E0,5.073449016E-1,-2.531267166E0
9.811853188E0,1.224858761E0,4.951870441E-1,-2.782805920E0
9.816853188E0,1.043730855E0,4.524484277E-1,-2.995525360E0
9.821853188E0,8.856261969E-1,3.975746632E-1,-3.127553463E0
9.826853188E0,7.206125259E-1,3.217734694E-1,-3.185968399E0
9.831853188E0,5.445842743E-1,1.966491342E-1,-3.140079975E0
9.836853188E0,3.670620918E-1,1.002881527E-1,-3.001478672E0
9.841853188E0,2.194645405E-1,4.212045670E-2,-2.839502811E0
9.846853188E0,1.080409288E-1,2.388399839E-2,-2.648596287E0
9.851853188E0,3.983277082E-2,4.788506031E-2,-2.529560089E0
9.856853188E0,-3.441166878E-2,6.625711918E-2,-2.447668076E0
9.861853188E0,-7.942819595E-2,9.359008074E-2,-2.392009735E0
9.866853188E0,-7.314831018E-2,1.085032225E-1,-2.379409313E0
9.871853188E0,-5.638992786E-2,1.148849130E-1,-2.433516026E0
9.876853188E0,-6.503701210E-2,1.592822671E-1,-2.477108002E0
9.881853188E0,-1.703310013E-2,1.916812658E-1,-2.634867668E0
9.886853188E0,1.093870401E-2,2.779060006E-1,-2.832457542E0
9.891853188E0,2.465298176E-1,2.540499568E-1,-3.179465771E0
9.896853188E0,4.052559137E-1,2.452496886E-1,-3.624881268E0
9.901853188E0,5.201026797E-1,3.078240156E-1,-3.924167633E0
9.906853188E0,5.780634880E-1,3.927016258E-1,-4.061215401E0
9.911853188E0,5.264961720E-1,4.722691774E-1,-4.189737797E0
9.916853188E0,4.665090442E-1,5.180552006E-1,-4.286455631E0
9.921853188E0,4.096312523E-1,5.534408092E-1,-4.396196365E0
9.926853188E0,4.192725122E-1,5.731242895E-1,-4.505639553E0
9.931853188E0,4.661706686E-1,5.566588640E-1,-4.567082882E0
9.936853188E0,5.116715431E-1,5.086085796E-1,-4.537208557E0
9.941853188E0,5.420099497E-1,4.894335270E-1,-4.379284382E0
9.946853188E0,5.645540953E-1,4.724451303E-1,-4.144092083E0
9.951853188E0,6.027007103E-1,4.494810104E-1,-3.928531647E0
9.956853188E0,6.524561644E-1,4.656975269E-1,-3.741765022E0
9.961853188E0,7.105246782E-1,4.391973019E-1,-3.615335941E0
9.966853188E0,7.507408857E-1,4.329450130E-1,-3.531096458E0
9.971853188E0,7.746413946E-1,4.253613949E-1,-3.390552998E0
9.976853188E0,7.398017645E-1,4.007387161E-1,-3.296465874E0
9.981853188E0,6.975584030E-1,4.051170349E-1,-3.142278194E0
9.986853188E0,6.334169507E-1,4.200701714E-1,-3.016717434E0
9.991853188E0,5.476500988E-1,4.333490133E-1,-2.930198193E0
9.996853188E0,4.972055852E-1,4.561595917E-1,-2.882811069E0
1.000185319E1,4.291449785E-1,4.891084433E-1,-2.845236301E0
1.000685319E1,3.187953234E-1,5.089603662E-1,-2.784951687E0
1.001185319E1,2.070279121E-1,5.305842161E-1,-2.654280663E0
1.001685319E1,9.402184188E-2,5.512627363E-1,-2.508953571E0
1.002185319E1,-2.757498622E-2,5.806267262E-1,-2.299012661E0
1.002685319E1,-1.333353370E-1,6.074931622E-1,-2.041243076E0
1.003185319E1,-2.498593330E-1,6.000510454E-1,-1.737876892E0
1.003685319E1,-3.749525547E-1,6.013062000E-1,-1.396455765E0
1.004185319E1,-5.095329285E-1,5.795935392E-1,-1.021276474E0
1.004685319E1,-6.342571378E-1,5.410292149E-1,-6.044406891E-1
1.005185319E1,-7.357809544E-1,4.967408180E-1,-3.022651672E-1
1.005685319E1,-8.152306080E-1,4.634516239E-1,-1.343250275E-2
1.006185319E1,-8.983886242E-1,4.520407915E-1,2.362089157E-1
1.006685319E1,-9.496316910E-1,4.718290567E-1,4.614133835E-1
